onset	duration	trial_type	accuracy	button	response_time	trial_type_less_granular	time_to_offset_alternative_onset	time_to_RT_alternative_onset_or_duration
10.396	0.067	recently_learned_faces_baseline	0	NA	NA	recently_learned_faces_baseline	10.44	NA
11.299	2.507	recently_learned_faces_baseline	0	NA	NA	recently_learned_faces_baseline	13.777	NA
14.725	2.508	famous_faces_baseline	1	left	1.173	famous_faces_baseline	17.215	15.898
18.32	2.507	famous_faces_baseline	1	right	1.699	famous_faces_baseline	20.804	20.019
21.864	2.507	famous_faces_false_combination	1	right	1.383	famous_faces	24.343	23.247
25.391	2.507	famous_faces_correct_combination	1	left	1.052	famous_faces	27.881	26.443
28.784	2.508	recently_learned_faces_false_combination	0	left	2.388	recently_learned_faces	31.269	31.172
32.328	2.508	recently_learned_faces_false_combination	1	right	1.645	recently_learned_faces	34.808	33.973
35.655	2.507	famous_faces_false_combination	0	NA	NA	famous_faces	38.145	NA
39.199	2.507	famous_faces_baseline	1	left	1.808	famous_faces_baseline	41.683	41.007
42.843	2.507	recently_learned_faces_baseline	1	left	1.187	recently_learned_faces_baseline	45.322	44.03
46.27	2.507	famous_faces_false_combination	1	right	1.994	famous_faces	48.76	48.264
49.663	2.508	famous_faces_baseline	1	right	1.926	famous_faces_baseline	52.147	51.589
55.297	2.507	famous_faces_baseline	1	right	1.14	famous_faces_baseline	57.788	56.437
58.841	2.507	recently_learned_faces_correct_combination	0	right	1.462	recently_learned_faces	61.327	60.303
62.385	2.507	recently_learned_faces_false_combination	1	right	1.886	recently_learned_faces	64.866	64.271
65.912	2.507	famous_faces_correct_combination	1	left	1.907	famous_faces	68.404	67.819
69.205	2.508	famous_faces_false_combination	1	right	1.142	famous_faces	71.691	70.347
72.9	2.507	recently_learned_faces_false_combination	0	left	2.092	recently_learned_faces	75.38	74.992
76.276	2.508	famous_faces_false_combination	0	left	2.117	famous_faces	78.768	78.393
79.72	2.507	recently_learned_faces_false_combination	1	right	1.516	recently_learned_faces	82.206	81.236
83.314	2.508	recently_learned_faces_false_combination	0	left	1.351	recently_learned_faces	85.795	84.665
86.641	2.507	famous_faces_baseline	1	right	2.476	famous_faces_baseline	89.132	89.117
90.235	2.507	famous_faces_baseline	1	right	1.343	famous_faces_baseline	92.721	91.578
93.779	2.507	famous_faces_false_combination	1	right	1.597	famous_faces	96.26	95.376
97.105	2.508	recently_learned_faces_false_combination	0	left	2.031	recently_learned_faces	99.597	99.136
102.906	2.507	recently_learned_faces_correct_combination	1	left	1.404	recently_learned_faces	105.389	104.31
106.283	2.524	famous_faces_correct_combination	1	left	1.525	famous_faces	108.776	107.808
109.927	2.507	recently_learned_faces_correct_combination	1	left	1.566	recently_learned_faces	112.415	111.493
113.22	2.508	recently_learned_faces_false_combination	1	right	1.676	recently_learned_faces	115.702	114.896
116.798	2.524	recently_learned_faces_correct_combination	1	left	2.14	recently_learned_faces	119.291	118.938
120.191	2.508	famous_faces_correct_combination	1	left	1.502	famous_faces	122.679	121.693
123.835	2.508	famous_faces_correct_combination	1	left	1.053	famous_faces	126.318	124.888
127.262	2.524	recently_learned_faces_correct_combination	1	left	1.222	recently_learned_faces	129.756	128.484
130.856	2.508	famous_faces_baseline	1	left	1.853	famous_faces_baseline	133.345	132.709
134.2	2.507	recently_learned_faces_baseline	1	right	1.998	recently_learned_faces_baseline	136.682	136.198
137.627	2.524	famous_faces_baseline	1	left	1.405	famous_faces_baseline	140.12	139.032
141.221	2.507	famous_faces_correct_combination	1	left	0.906	famous_faces	143.709	142.127
144.815	2.507	recently_learned_faces_correct_combination	0	right	2.24	recently_learned_faces	147.298	147.055
150.248	2.507	famous_faces_baseline	1	right	1.804	famous_faces_baseline	152.737	152.052
153.842	2.507	famous_faces_correct_combination	1	left	1.294	famous_faces	156.326	155.136
157.436	2.507	famous_faces_baseline	1	right	1.084	famous_faces_baseline	159.915	158.52
160.762	2.508	recently_learned_faces_correct_combination	1	left	1.368	recently_learned_faces	163.252	162.13
164.356	2.508	recently_learned_faces_baseline	1	left	1.517	recently_learned_faces_baseline	166.841	165.873
167.7	2.507	recently_learned_faces_correct_combination	1	left	1.105	recently_learned_faces	170.178	168.805
171.227	2.508	recently_learned_faces_correct_combination	1	left	2.289	recently_learned_faces	173.716	173.516
174.871	2.508	recently_learned_faces_correct_combination	0	right	1.974	recently_learned_faces	177.355	176.845
178.315	2.507	famous_faces_false_combination	0	left	1.066	famous_faces	180.793	179.381
181.742	2.507	recently_learned_faces_baseline	1	left	1.787	recently_learned_faces_baseline	184.231	183.529
185.185	2.508	famous_faces_false_combination	1	right	1.65	famous_faces	187.669	186.835
188.612	2.525	famous_faces_false_combination	1	right	1.295	famous_faces	191.107	189.907
192.206	2.508	famous_faces_baseline	1	right	1.865	famous_faces_baseline	194.696	194.071
197.957	2.508	recently_learned_faces_false_combination	0	left	1.958	recently_learned_faces	200.437	199.915
201.233	2.508	famous_faces_false_combination	1	right	1.588	famous_faces	203.724	202.821
204.878	2.507	recently_learned_faces_correct_combination	0	right	1.425	recently_learned_faces	207.363	206.303
208.321	2.508	famous_faces_false_combination	1	right	1.987	famous_faces	210.801	210.308
211.748	2.508	famous_faces_baseline	1	left	1.305	famous_faces_baseline	214.239	213.053
215.393	2.507	recently_learned_faces_false_combination	0	left	1.52	recently_learned_faces	217.878	216.913
218.686	2.507	recently_learned_faces_false_combination	0	left	2.488	recently_learned_faces	221.165	221.174
222.263	2.508	famous_faces_correct_combination	1	left	1.376	famous_faces	224.754	223.639
225.807	2.508	recently_learned_faces_baseline	1	right	1.072	recently_learned_faces_baseline	228.293	226.879
229.2	2.508	famous_faces_baseline	0	left	1.512	famous_faces_baseline	231.68	230.712
232.778	2.507	recently_learned_faces_baseline	0	NA	NA	recently_learned_faces_baseline	235.269	NA
236.221	2.508	recently_learned_faces_baseline	1	right	1.364	recently_learned_faces_baseline	238.707	237.585
239.665	2.508	recently_learned_faces_false_combination	0	left	1.324	recently_learned_faces	242.145	240.989
245.299	2.507	recently_learned_faces_baseline	1	right	1.002	recently_learned_faces_baseline	247.785	246.301
248.742	2.508	famous_faces_correct_combination	0	right	1.55	famous_faces	251.223	250.292
252.37	2.524	famous_faces_correct_combination	1	left	1.753	famous_faces	254.862	254.123
255.914	2.507	famous_faces_baseline	1	right	0.878	famous_faces_baseline	258.4	256.792
259.307	2.508	recently_learned_faces_correct_combination	1	left	1.31	recently_learned_faces	261.788	260.617
262.734	2.524	recently_learned_faces_correct_combination	1	left	1.344	recently_learned_faces	265.226	264.078
266.378	2.508	famous_faces_correct_combination	1	left	0.982	famous_faces	268.865	267.36
269.772	2.507	famous_faces_false_combination	1	right	1.432	famous_faces	272.253	271.204
273.149	2.507	famous_faces_correct_combination	1	left	1.046	famous_faces	275.641	274.195
276.793	2.507	famous_faces_baseline	1	left	2.225	famous_faces_baseline	279.28	279.018
280.186	2.508	recently_learned_faces_correct_combination	1	left	1.357	recently_learned_faces	282.667	281.543
283.613	2.508	famous_faces_false_combination	1	right	1.205	famous_faces	286.105	284.818
287.258	2.507	recently_learned_faces_correct_combination	1	left	1.191	recently_learned_faces	289.744	288.449
292.791	2.524	recently_learned_faces_correct_combination	1	left	1.151	recently_learned_faces	295.284	293.942
296.234	2.508	famous_faces_false_combination	1	right	1.615	famous_faces	298.722	297.849
299.879	2.507	famous_faces_false_combination	1	right	1.483	famous_faces	302.361	301.362
303.406	2.524	recently_learned_faces_baseline	0	NA	NA	recently_learned_faces_baseline	305.899	NA
306.799	2.508	famous_faces_correct_combination	1	left	1.003	famous_faces	309.287	307.802
310.343	2.508	recently_learned_faces_baseline	1	left	1.239	recently_learned_faces_baseline	312.826	311.582
313.72	2.524	famous_faces_correct_combination	1	left	1.089	famous_faces	316.213	314.809
317.364	2.508	recently_learned_faces_correct_combination	1	left	1.407	recently_learned_faces	319.852	318.771
320.657	2.508	recently_learned_faces_false_combination	1	right	2.32	recently_learned_faces	323.139	322.977
324.235	2.524	recently_learned_faces_false_combination	0	left	1.272	recently_learned_faces	326.728	325.507
327.779	2.507	recently_learned_faces_correct_combination	1	left	1.489	recently_learned_faces	330.267	329.268
331.323	2.507	recently_learned_faces_baseline	1	right	1.482	recently_learned_faces_baseline	333.805	332.805
334.699	2.525	famous_faces_correct_combination	1	left	1.027	famous_faces	337.193	335.726
340.45	2.507	recently_learned_faces_baseline	1	left	1.672	recently_learned_faces_baseline	342.934	342.122
343.894	2.507	recently_learned_faces_baseline	1	right	1.045	recently_learned_faces_baseline	346.372	344.939
347.22	2.508	famous_faces_false_combination	1	right	1.763	famous_faces	349.709	348.983
350.814	2.508	recently_learned_faces_correct_combination	1	left	1.453	recently_learned_faces	353.298	352.267
354.258	2.507	famous_faces_false_combination	0	left	0.968	famous_faces	356.736	355.226
357.885	2.508	recently_learned_faces_baseline	1	right	1.425	recently_learned_faces_baseline	360.375	359.31
361.229	2.507	recently_learned_faces_baseline	1	left	1.679	recently_learned_faces_baseline	363.712	362.908
364.656	2.524	recently_learned_faces_false_combination	1	right	1.782	recently_learned_faces	367.15	366.438
368.25	2.507	famous_faces_false_combination	1	right	1.27	famous_faces	370.739	369.52
371.794	2.507	famous_faces_correct_combination	1	left	1.144	famous_faces	374.278	372.938
375.237	2.508	famous_faces_false_combination	1	right	1.181	famous_faces	377.716	376.418
378.664	2.508	recently_learned_faces_baseline	1	right	1.413	recently_learned_faces_baseline	381.154	380.077
382.309	2.507	recently_learned_faces_false_combination	0	left	1.447	recently_learned_faces	384.793	383.756
387.842	2.524	recently_learned_faces_baseline	1	left	1.324	recently_learned_faces_baseline	390.334	389.166
391.285	2.508	famous_faces_false_combination	1	right	1.113	famous_faces	393.772	392.398
394.729	2.508	famous_faces_correct_combination	1	left	1.051	famous_faces	397.21	395.78
398.407	2.524	recently_learned_faces_baseline	1	right	1.407	recently_learned_faces_baseline	400.899	399.814
401.85	2.508	recently_learned_faces_correct_combination	1	left	1.208	recently_learned_faces	404.337	403.058
405.294	2.507	famous_faces_correct_combination	1	left	1.427	famous_faces	407.775	406.721
408.871	2.525	recently_learned_faces_false_combination	0	left	2.383	recently_learned_faces	411.364	411.254
412.215	2.507	famous_faces_correct_combination	1	left	1.326	famous_faces	414.701	413.541
415.809	2.507	famous_faces_false_combination	1	right	1.55	famous_faces	418.29	417.359
419.135	2.508	famous_faces_baseline	1	right	1.485	famous_faces_baseline	421.627	420.62
422.729	2.508	famous_faces_correct_combination	1	left	1.202	famous_faces	425.216	423.931
426.173	2.508	famous_faces_baseline	1	right	1.069	famous_faces_baseline	428.654	427.242
429.75	2.525	famous_faces_baseline	1	left	1.195	famous_faces_baseline	432.243	430.945
435.401	2.507	recently_learned_faces_baseline	1	left	1.011	recently_learned_faces_baseline	437.883	436.412
438.777	2.508	recently_learned_faces_false_combination	0	left	1.386	recently_learned_faces	441.27	440.163
442.221	2.508	recently_learned_faces_correct_combination	1	left	1	recently_learned_faces	444.708	443.221
445.815	2.508	recently_learned_faces_baseline	1	left	1.701	recently_learned_faces_baseline	448.297	447.516
449.393	2.524	recently_learned_faces_false_combination	0	left	2.252	recently_learned_faces	451.886	451.645
452.686	2.507	recently_learned_faces_baseline	1	left	1.023	recently_learned_faces_baseline	455.173	453.709
456.33	2.507	recently_learned_faces_baseline	1	left	1.185	recently_learned_faces_baseline	458.812	457.515
459.707	2.507	famous_faces_baseline	1	left	0.946	famous_faces_baseline	462.199	460.653
463.351	2.507	famous_faces_correct_combination	1	left	0.848	famous_faces	465.838	464.199
466.744	2.508	famous_faces_baseline	1	right	1.099	famous_faces_baseline	469.226	467.843
470.121	2.524	famous_faces_false_combination	1	right	1.241	famous_faces	472.614	471.362
473.665	2.508	famous_faces_false_combination	1	right	1.203	famous_faces	476.152	474.868
477.259	2.508	recently_learned_faces_baseline	1	left	1.028	recently_learned_faces_baseline	479.741	478.287
482.943	2.507	famous_faces_baseline	1	right	1.949	famous_faces_baseline	485.432	484.892
486.387	2.507	recently_learned_faces_correct_combination	0	right	1.703	recently_learned_faces	488.87	488.09
489.713	2.524	recently_learned_faces_baseline	1	left	1.227	recently_learned_faces_baseline	492.207	490.94
493.307	2.508	recently_learned_faces_correct_combination	1	left	1.523	recently_learned_faces	495.796	494.83
496.751	2.507	famous_faces_baseline	1	left	0.955	famous_faces_baseline	499.234	497.706
500.378	2.525	recently_learned_faces_false_combination	1	right	1.543	recently_learned_faces	502.873	501.921
503.672	2.507	famous_faces_false_combination	1	right	1.307	famous_faces	506.16	504.979
507.216	2.507	recently_learned_faces_baseline	1	left	1.136	recently_learned_faces_baseline	509.698	508.352
510.793	2.524	famous_faces_baseline	1	right	0.966	famous_faces_baseline	513.287	511.759
514.237	2.507	recently_learned_faces_false_combination	1	right	1.572	recently_learned_faces	516.725	515.809
517.63	2.508	famous_faces_baseline	1	left	1.113	famous_faces_baseline	520.113	518.743
521.157	2.524	famous_faces_false_combination	1	right	1.21	famous_faces	523.651	522.367
524.801	2.508	recently_learned_faces_false_combination	1	right	1.497	recently_learned_faces	527.29	526.298
530.402	2.507	famous_faces_correct_combination	1	left	0.957	famous_faces	532.881	531.359
533.728	2.508	recently_learned_faces_false_combination	0	left	1.644	recently_learned_faces	536.218	535.372
537.322	2.508	recently_learned_faces_baseline	1	right	1.428	recently_learned_faces_baseline	539.807	538.75
540.766	2.507	recently_learned_faces_correct_combination	1	left	1.467	recently_learned_faces	543.245	542.233
544.393	2.508	famous_faces_correct_combination	1	left	1.077	famous_faces	546.884	545.47
547.787	2.507	famous_faces_correct_combination	1	left	0.983	famous_faces	550.272	548.77
551.231	2.507	recently_learned_faces_false_combination	1	right	1.514	recently_learned_faces	553.71	552.745
554.858	2.508	famous_faces_baseline	1	left	1.385	famous_faces_baseline	557.349	556.243
558.302	2.507	famous_faces_false_combination	1	right	1.25	famous_faces	560.787	559.552
561.645	2.508	famous_faces_false_combination	1	right	1.28	famous_faces	564.124	562.925
565.273	2.507	famous_faces_false_combination	1	right	1.067	famous_faces	567.763	566.34
568.616	2.507	recently_learned_faces_false_combination	0	NA	NA	recently_learned_faces	571.1	NA
572.21	2.507	recently_learned_faces_false_combination	0	left	1.168	recently_learned_faces	574.689	573.378
577.843	2.508	recently_learned_faces_baseline	1	left	1.231	recently_learned_faces_baseline	580.33	579.074
581.237	2.507	recently_learned_faces_baseline	1	right	1.277	recently_learned_faces_baseline	583.718	582.514
584.864	2.525	recently_learned_faces_false_combination	0	left	1.075	recently_learned_faces	587.357	585.939
588.408	2.508	famous_faces_correct_combination	1	left	1.186	famous_faces	590.895	589.594
591.752	2.507	recently_learned_faces_baseline	1	right	0.986	recently_learned_faces_baseline	594.232	592.738
595.379	2.508	famous_faces_correct_combination	1	left	1.625	famous_faces	597.871	597.004
598.773	2.507	famous_faces_baseline	1	left	1.625	famous_faces_baseline	601.259	600.398
602.216	2.508	recently_learned_faces_false_combination	0	left	1.527	recently_learned_faces	604.697	603.743
605.643	2.508	recently_learned_faces_false_combination	1	right	1.617	recently_learned_faces	608.135	607.26
609.288	2.507	famous_faces_baseline	1	right	1.385	famous_faces_baseline	611.774	610.673
612.831	2.508	famous_faces_baseline	1	right	1.088	famous_faces_baseline	615.312	613.919
616.158	2.508	recently_learned_faces_baseline	1	left	1.205	recently_learned_faces_baseline	618.649	617.363
619.702	2.508	famous_faces_correct_combination	1	left	1.062	famous_faces	622.188	620.764
625.753	2.057	famous_faces_correct_combination	1	left	1.096	famous_faces	627.779	626.849
628.829	2.508	famous_faces_false_combination	1	right	1.198	famous_faces	631.318	630.027
632.423	2.508	famous_faces_correct_combination	1	left	1.039	famous_faces	634.907	633.462
635.7	2.524	famous_faces_false_combination	1	right	2.019	famous_faces	638.194	637.719
639.344	2.508	recently_learned_faces_false_combination	0	NA	NA	recently_learned_faces	641.833	NA
642.687	2.508	famous_faces_false_combination	1	right	1.338	famous_faces	645.17	644.025
646.215	2.524	famous_faces_false_combination	1	right	1.165	famous_faces	648.708	647.38
649.809	2.507	recently_learned_faces_correct_combination	1	left	1.309	recently_learned_faces	652.297	651.118
653.353	2.507	famous_faces_baseline	1	left	1.37	famous_faces_baseline	655.835	654.723
656.729	2.525	recently_learned_faces_correct_combination	1	left	1.557	recently_learned_faces	659.223	658.286
660.324	2.507	recently_learned_faces_false_combination	1	right	1.928	recently_learned_faces	662.812	662.252
663.767	2.508	famous_faces_baseline	1	right	0.993	famous_faces_baseline	666.25	664.76
667.144	2.524	famous_faces_false_combination	1	right	1.36	famous_faces	669.637	668.504
672.794	2.508	recently_learned_faces_correct_combination	1	left	2.194	recently_learned_faces	675.278	674.988
676.438	2.508	recently_learned_faces_baseline	1	left	1.212	recently_learned_faces_baseline	678.917	677.65
679.715	2.507	recently_learned_faces_correct_combination	0	right	1.161	recently_learned_faces	682.204	680.876
683.359	2.508	famous_faces_false_combination	1	right	1.112	famous_faces	685.843	684.471
686.803	2.507	recently_learned_faces_correct_combination	1	left	1.434	recently_learned_faces	689.281	688.237
690.18	2.507	famous_faces_baseline	1	left	1.175	famous_faces_baseline	692.669	691.355
693.723	2.508	famous_faces_baseline	1	left	0.891	famous_faces_baseline	696.207	694.614
697.368	2.507	famous_faces_correct_combination	1	left	1.403	famous_faces	699.846	698.771
700.744	2.508	recently_learned_faces_false_combination	0	left	2.038	recently_learned_faces	703.234	702.782
704.288	2.508	recently_learned_faces_correct_combination	1	left	1.354	recently_learned_faces	706.773	705.642
707.832	2.508	recently_learned_faces_correct_combination	1	left	1.416	recently_learned_faces	710.311	709.248
711.159	2.507	famous_faces_baseline	1	left	1.391	famous_faces_baseline	713.648	712.55
714.753	2.508	recently_learned_faces_baseline	1	right	1.028	recently_learned_faces_baseline	717.237	715.781
720.387	2.507	famous_faces_false_combination	1	right	1.009	famous_faces	722.878	721.396
723.83	2.508	famous_faces_baseline	1	left	1.48	famous_faces_baseline	726.316	725.31
727.424	2.508	recently_learned_faces_false_combination	1	right	1.599	recently_learned_faces	729.905	729.023
730.701	2.507	famous_faces_correct_combination	1	left	1.087	famous_faces	733.192	731.788
734.245	2.507	recently_learned_faces_correct_combination	0	right	2.094	recently_learned_faces	736.73	736.339
737.789	2.507	recently_learned_faces_correct_combination	1	left	0.923	recently_learned_faces	740.269	738.712
741.165	2.508	famous_faces_correct_combination	1	left	0.927	famous_faces	743.657	742.092
744.81	2.507	recently_learned_faces_correct_combination	0	right	1.506	recently_learned_faces	747.296	746.316
748.354	2.507	recently_learned_faces_false_combination	0	left	0.962	recently_learned_faces	750.834	749.316
751.68	2.508	recently_learned_faces_baseline	1	right	1.653	recently_learned_faces_baseline	754.171	753.333
755.224	2.508	recently_learned_faces_correct_combination	1	left	1.034	recently_learned_faces	757.71	756.258
758.768	2.508	recently_learned_faces_false_combination	1	right	1.209	recently_learned_faces	761.249	759.977
762.295	2.508	recently_learned_faces_correct_combination	1	left	1.153	recently_learned_faces	764.787	763.448
767.895	2.508	recently_learned_faces_baseline	1	right	0.946	recently_learned_faces_baseline	770.377	768.841
771.272	2.508	famous_faces_false_combination	1	right	1.097	famous_faces	773.764	772.369
774.916	2.508	famous_faces_correct_combination	1	left	0.835	famous_faces	777.403	775.751
778.21	2.507	recently_learned_faces_false_combination	0	NA	NA	recently_learned_faces	780.69	NA
781.787	2.507	famous_faces_baseline	1	left	1.63	famous_faces_baseline	784.279	783.417
785.18	2.508	famous_faces_correct_combination	1	left	1.006	famous_faces	787.667	786.186
788.774	2.508	famous_faces_correct_combination	1	left	2.132	famous_faces	791.256	790.906
792.201	2.508	famous_faces_correct_combination	1	left	0.793	famous_faces	794.694	792.994
