onset	duration	trial_type	accuracy	button	response_time	time_to_offset_alternative_onset	time_to_RT_alternative_onset_or_duration
10.836	1.788	Visual_Same	1	right	1.316	12.624	12.152
13.276	1.789	Visual_Lure	1	left	0.961	15.065	14.237
15.867	1.789	Visual_Different	0	NA	NA	17.656	NA
18.408	1.789	Visual_Lure	1	left	0.816	20.197	19.224
20.699	1.788	Visual_Lure	1	left	0.563	22.487	21.262
23.323	1.789	Visual_Different	1	left	1.533	25.112	24.856
25.663	1.789	Visual_Different	0	NA	NA	27.452	NA
33.286	1.789	Auditory_Different	1	left	1.396	35.075	34.682
35.827	1.789	Auditory_Different	1	left	1.031	37.616	36.858
38.368	1.789	Auditory_Same	1	right	1.145	40.157	39.513
40.709	1.788	Auditory_Lure	0	right	1.414	42.497	42.123
43.4	1.789	Auditory_Different	1	left	0.703	45.189	44.103
50.839	1.789	Visual_Same	1	right	0.769	52.628	51.608
53.43	1.789	Visual_Same	1	right	0.953	55.219	54.383
55.77	1.789	Visual_Different	1	left	0.785	57.559	56.555
58.361	1.789	Visual_Lure	1	left	1.202	60.15	59.563
60.735	1.789	Visual_Lure	1	left	0.87	62.524	61.605
63.376	1.789	Visual_Same	0	NA	NA	65.165	NA
70.749	1.788	Auditory_Different	1	left	1.041	72.537	71.79
73.373	1.789	Auditory_Same	1	right	0.951	75.162	74.324
75.914	1.789	Auditory_Different	1	left	1.039	77.703	76.953
78.254	1.789	Auditory_Lure	1	left	1.369	80.043	79.623
80.795	1.789	Auditory_Lure	1	left	1.391	82.584	82.186
83.336	1.789	Auditory_Same	1	right	0.68	85.125	84.016
90.742	1.788	Visual_Different	1	left	1.095	92.53	91.837
93.333	1.789	Visual_Same	1	right	0.663	95.122	93.996
95.924	1.789	Visual_Lure	1	left	0.794	97.713	96.718
98.197	1.789	Visual_Same	1	right	0.647	99.986	98.844
100.789	1.788	Visual_Same	1	right	0.457	102.577	101.246
103.229	1.789	Visual_Lure	1	left	0.799	105.018	104.028
105.82	1.789	Visual_Lure	0	right	0.894	107.609	106.714
113.343	1.789	Auditory_Same	1	right	0.896	115.132	114.239
115.784	1.788	Auditory_Same	1	right	0.721	117.572	116.505
118.425	1.788	Auditory_Different	1	left	0.512	120.213	118.937
120.698	1.789	Auditory_Same	1	right	0.866	122.487	121.564
123.239	1.789	Auditory_Lure	1	left	0.675	125.028	123.914
130.795	1.789	Visual_Different	1	left	0.799	132.584	131.594
133.236	1.788	Visual_Lure	1	left	0.863	135.024	134.099
135.91	1.789	Visual_Different	1	left	0.725	137.699	136.635
138.351	1.789	Visual_Same	1	right	0.495	140.14	138.846
140.792	1.788	Visual_Same	1	right	0.855	142.58	141.647
143.232	1.789	Visual_Lure	0	right	1.046	145.021	144.278
145.824	1.772	Visual_Lure	1	left	0.997	147.596	146.821
153.346	1.789	Auditory_Lure	1	left	0.829	155.135	154.175
155.737	1.772	Auditory_Lure	1	left	1.405	157.509	157.142
158.361	1.789	Auditory_Different	1	left	1.369	160.15	159.73
160.902	1.789	Auditory_Same	1	right	0.602	162.691	161.504
163.293	1.788	Auditory_Lure	1	left	0.748	165.081	164.041
170.949	1.789	Visual_Same	1	right	0.73	172.738	171.679
173.222	1.789	Visual_Same	1	right	0.59	175.011	173.812
175.813	1.789	Visual_Different	1	left	0.53	177.602	176.343
178.254	1.789	Visual_Same	1	right	1.019	180.043	179.273
180.845	1.789	Visual_Lure	1	left	0.659	182.634	181.504
188.284	1.789	Auditory_Different	1	left	0.653	190.073	188.937
190.725	1.788	Auditory_Lure	0	right	0.823	192.513	191.548
193.366	1.789	Auditory_Different	1	left	0.938	195.155	194.304
195.907	1.789	Auditory_Same	1	right	0.909	197.696	196.816
198.297	1.789	Auditory_Same	1	right	0.876	200.086	199.173
200.822	1.788	Auditory_Lure	1	left	1.526	202.61	202.348
203.162	1.789	Auditory_Lure	0	right	0.987	204.951	204.149
210.735	1.788	Visual_Different	1	left	0.987	212.523	211.722
213.326	1.788	Visual_Different	1	left	0.905	215.114	214.231
215.917	1.789	Visual_Same	0	left	1.163	217.706	217.08
218.307	1.789	Visual_Lure	0	NA	NA	220.096	NA
220.848	1.789	Visual_Different	1	left	0.66	222.637	221.508
228.287	1.789	Auditory_Lure	0	right	1.259	230.076	229.546
230.928	1.789	Auditory_Lure	1	left	1.375	232.717	232.303
233.219	1.788	Auditory_Same	1	right	0.861	235.007	234.08
235.76	1.772	Auditory_Different	1	left	1.335	237.532	237.095
238.384	1.789	Auditory_Different	0	right	0.999	240.173	239.383
240.775	1.788	Auditory_Lure	1	left	1.293	242.563	242.068
248.247	1.789	Visual_Same	0	left	0.72	250.036	248.967
250.922	1.788	Visual_Same	1	right	0.571	252.71	251.493
253.262	1.789	Visual_Lure	1	left	1.538	255.051	254.8
255.903	1.789	Visual_Different	1	left	1.079	257.692	256.982
258.344	1.789	Visual_Same	1	right	1.001	260.133	259.345
265.883	1.789	Auditory_Lure	0	right	1.008	267.672	266.891
268.274	1.788	Auditory_Different	1	left	1.014	270.062	269.288
270.815	1.788	Auditory_Lure	1	left	1.3	272.603	272.115
273.356	1.788	Auditory_Same	1	right	0.916	275.144	274.272
275.696	1.789	Auditory_Same	1	right	0.806	277.485	276.502
278.371	1.788	Auditory_Different	1	left	1.42	280.159	279.791
285.743	1.788	Visual_Lure	1	left	0.737	287.531	286.48
288.334	1.788	Visual_Different	1	left	0.759	290.122	289.093
290.758	1.788	Visual_Same	1	right	1.024	292.546	291.782
293.349	1.789	Visual_Different	1	left	0.661	295.138	294.01
295.739	1.789	Visual_Different	1	left	0.824	297.528	296.563
298.28	1.789	Visual_Same	1	right	1.053	300.069	299.333
300.671	1.788	Visual_Same	1	right	0.585	302.459	301.256
308.344	1.788	Auditory_Same	1	right	0.756	310.132	309.1
310.734	1.789	Auditory_Lure	1	left	0.841	312.523	311.575
313.359	1.788	Auditory_Different	1	left	0.71	315.147	314.069
315.9	1.788	Auditory_Lure	1	left	1.73	317.688	317.63
318.24	1.789	Auditory_Lure	0	NA	NA	320.029	NA
320.881	1.789	Auditory_Different	1	left	1.016	322.67	321.897
323.255	1.789	Auditory_Different	1	left	1.028	325.044	324.283
330.945	1.788	Visual_Different	1	left	0.834	332.733	331.779
333.218	1.789	Visual_Different	1	left	0.816	335.007	334.034
335.859	1.789	Visual_Lure	1	left	1.17	337.648	337.029
338.3	1.789	Visual_Different	1	left	0.792	340.089	339.092
340.741	1.788	Visual_Same	1	right	0.495	342.529	341.236
348.247	1.772	Auditory_Same	1	right	0.923	350.019	349.17
350.871	1.789	Auditory_Same	1	right	0.729	352.66	351.6
353.262	1.788	Auditory_Lure	1	left	0.717	355.05	353.979
355.702	1.789	Auditory_Different	1	left	0.653	357.491	356.355
358.243	1.789	Auditory_Same	1	right	0.761	360.032	359.004
365.933	1.789	Visual_Same	1	right	0.958	367.722	366.891
368.374	1.788	Visual_Lure	1	left	0.807	370.162	369.181
370.814	1.789	Visual_Same	1	right	0.651	372.603	371.465
373.255	1.789	Visual_Different	1	left	0.568	375.044	373.823
375.696	1.771	Visual_Different	1	left	0.742	377.467	376.438
378.37	1.789	Visual_Lure	1	left	0.918	380.159	379.288
385.943	1.789	Auditory_Different	1	left	1.065	387.732	387.008
388.333	1.789	Auditory_Different	1	left	1.033	390.122	389.366
390.858	1.788	Auditory_Lure	1	left	0.843	392.646	391.701
393.298	1.789	Auditory_Different	1	left	0.59	395.087	393.888
395.839	1.789	Auditory_Same	1	right	0.839	397.628	396.678
403.395	1.789	Visual_Lure	1	left	0.742	405.184	404.137
405.719	1.788	Visual_Lure	1	left	0.621	407.507	406.34
408.26	1.788	Visual_Different	1	left	0.536	410.048	408.796
410.801	1.788	Visual_Same	1	right	0.807	412.589	411.608
413.392	1.788	Visual_Lure	1	left	0.934	415.18	414.326
420.931	1.789	Auditory_Lure	1	left	0.951	422.72	421.882
423.221	1.789	Auditory_Lure	0	right	1.332	425.01	424.553
425.762	1.789	Auditory_Same	1	right	0.68	427.551	426.442
428.303	1.789	Auditory_Lure	0	NA	NA	430.092	NA
430.844	1.789	Auditory_Different	1	left	0.918	432.633	431.762
438.283	1.789	Visual_Lure	1	left	0.764	440.072	439.047
440.824	1.789	Visual_Different	1	left	0.686	442.613	441.51
443.365	1.789	Visual_Lure	0	right	1.775	445.154	445.14
445.906	1.788	Visual_Same	1	right	0.794	447.694	446.7
448.179	1.789	Visual_Same	1	right	0.84	449.968	449.019
450.821	1.788	Visual_Different	1	left	0.668	452.609	451.489
458.243	1.788	Auditory_Different	1	left	0.789	460.031	459.032
460.767	1.789	Auditory_Different	1	left	0.779	462.556	461.546
463.408	1.789	Auditory_Lure	1	left	1.098	465.197	464.506
465.698	1.789	Auditory_Same	1	right	0.579	467.487	466.277
468.34	1.788	Auditory_Same	1	right	0.607	470.128	468.947
470.713	1.789	Auditory_Different	1	left	0.815	472.502	471.528
478.236	1.789	Visual_Lure	1	left	0.899	480.025	479.135
480.777	1.789	Visual_Lure	1	left	0.615	482.566	481.392
483.418	1.789	Visual_Same	1	right	0.784	485.207	484.202
485.792	1.789	Visual_Different	1	left	0.608	487.581	486.4
488.383	1.789	Visual_Different	1	left	0.749	490.172	489.132
490.774	1.788	Visual_Lure	1	left	0.823	492.562	491.597
498.33	1.788	Auditory_Same	1	right	1.182	500.118	499.512
500.921	1.788	Auditory_Same	1	right	0.657	502.709	501.578
503.311	1.789	Auditory_Different	1	left	0.821	505.1	504.132
505.752	1.788	Auditory_Lure	0	right	1.334	507.54	507.086
508.343	1.789	Auditory_Lure	1	left	0.861	510.132	509.204
510.666	1.789	Auditory_Same	1	right	0.786	512.455	511.452
518.289	1.789	Visual_Lure	1	left	0.612	520.078	518.901
520.73	1.789	Visual_Same	1	right	0.877	522.519	521.607
523.354	1.789	Visual_Lure	1	left	0.64	525.143	523.994
525.895	1.789	Visual_Different	1	left	0.599	527.684	526.494
528.236	1.788	Visual_Different	1	left	0.797	530.024	529.033
530.827	1.789	Visual_Same	1	right	0.595	532.616	531.422
533.15	1.789	Visual_Same	1	right	0.445	534.939	533.595
540.94	1.789	Auditory_Lure	1	left	0.894	542.729	541.834
543.281	1.772	Auditory_Same	1	right	0.594	545.053	543.875
545.705	1.788	Auditory_Lure	1	left	1.005	547.493	546.71
548.346	1.789	Auditory_Different	1	left	1.019	550.135	549.365
550.787	1.788	Auditory_Different	1	left	0.658	552.575	551.445
553.378	1.788	Auditory_Same	1	right	0.625	555.166	554.003
555.802	1.788	Auditory_Same	1	right	0.527	557.59	556.329
563.341	1.789	Visual_Same	1	right	0.847	565.13	564.188
565.882	1.789	Visual_Different	1	left	0.634	567.671	566.516
568.256	1.788	Visual_Same	1	right	0.698	570.044	568.954
570.696	1.789	Visual_Lure	1	left	0.859	572.485	571.555
573.287	1.789	Visual_Lure	1	left	0.663	575.076	573.95
575.878	1.789	Visual_Different	0	right	0.541	577.667	576.419
578.202	1.789	Visual_Different	1	left	0.544	579.991	578.746
585.741	1.789	Auditory_Same	1	right	0.834	587.53	586.575
588.316	1.788	Auditory_Different	1	left	0.753	590.104	589.069
590.756	1.789	Auditory_Same	1	right	0.587	592.545	591.343
593.398	1.788	Auditory_Lure	1	left	1.112	595.186	594.51
595.688	1.788	Auditory_Lure	0	right	0.561	597.476	596.249
598.379	1.789	Auditory_Different	1	left	1.306	600.168	599.685
600.703	1.788	Auditory_Different	1	left	0.823	602.491	601.526
608.443	1.788	Visual_Different	1	left	0.584	610.231	609.027
610.816	1.789	Visual_Different	1	left	0.735	612.605	611.551
613.207	1.789	Visual_Lure	1	left	0.849	614.996	614.056
615.848	1.789	Visual_Same	1	right	1.713	617.637	617.561
618.239	1.788	Visual_Same	1	right	0.578	620.027	618.817
620.83	1.772	Visual_Different	1	left	0.664	622.602	621.494
628.386	1.788	Auditory_Different	1	left	0.726	630.174	629.112
630.826	1.789	Auditory_Same	1	right	0.633	632.615	631.459
633.217	1.788	Auditory_Lure	1	left	1.386	635.005	634.603
635.791	1.789	Auditory_Same	1	right	0.728	637.58	636.519
638.332	1.789	Auditory_Same	1	right	0.795	640.121	639.127
640.873	1.789	Auditory_Lure	1	left	0.697	642.662	641.57
643.213	1.789	Auditory_Lure	1	left	1.093	645.002	644.306
650.937	1.788	Visual_Different	1	left	0.633	652.725	651.57
653.327	1.789	Visual_Same	1	right	0.641	655.116	653.968
655.718	1.771	Visual_Different	1	left	0.763	657.489	656.481
658.242	1.788	Visual_Lure	1	left	0.853	660.03	659.095
660.682	1.789	Visual_Lure	1	left	0.731	662.471	661.413
663.274	1.788	Visual_Same	1	right	0.809	665.062	664.083
670.93	1.788	Auditory_Same	1	right	0.691	672.718	671.621
673.37	1.789	Auditory_Lure	1	left	0.744	675.159	674.114
675.811	1.789	Auditory_Same	1	right	0.601	677.6	676.412
678.252	1.788	Auditory_Different	1	left	0.629	680.04	678.881
680.676	1.788	Auditory_Different	1	left	1.017	682.464	681.693
683.317	1.789	Auditory_Lure	1	left	0.778	685.106	684.095
690.89	1.788	Visual_Lure	1	left	0.784	692.678	691.674
693.414	1.788	Visual_Lure	1	left	0.728	695.202	694.142
695.804	1.789	Visual_Same	1	right	0.851	697.593	696.655
698.195	1.788	Visual_Lure	1	left	0.761	699.983	698.956
700.736	1.788	Visual_Different	1	left	0.685	702.524	701.421
708.442	1.789	Auditory_Lure	1	left	0.801	710.231	709.243
710.816	1.789	Auditory_Different	1	left	0.647	712.605	711.463
713.257	1.788	Auditory_Same	1	right	0.819	715.045	714.076
715.697	1.789	Auditory_Different	1	left	0.723	717.486	716.42
718.238	1.789	Auditory_Different	1	left	0.789	720.027	719.027
720.662	1.789	Auditory_Same	1	right	0.751	722.451	721.413
723.253	1.789	Auditory_Same	1	right	0.687	725.042	723.94
