onset	duration	trial_type	accuracy	button	response_time	trial_type_less_granular	time_to_offset_alternative_onset	time_to_RT_alternative_onset_or_duration
7.85499999999999	2.507	recently_learned_faces_baseline	1	right	1.47	recently_learned_faces_baseline	10.34	9.32499999999999
11.398	2.508	recently_learned_faces_baseline	1	right	0.925	recently_learned_faces_baseline	13.879	12.323
14.926	2.507	famous_faces_baseline	1	left	0.738	famous_faces_baseline	17.417	15.664
18.219	2.507	famous_faces_baseline	1	right	0.839	famous_faces_baseline	20.704	19.058
21.763	2.507	famous_faces_false_combination	1	right	1.652	famous_faces	24.242	23.415
25.29	2.508	famous_faces_correct_combination	1	left	1.18	famous_faces	27.781	26.47
28.684	2.507	recently_learned_faces_false_combination	1	right	1.083	recently_learned_faces	31.169	29.767
32.228	2.507	recently_learned_faces_false_combination	1	right	1.311	recently_learned_faces	34.707	33.539
35.805	2.507	famous_faces_false_combination	1	right	0.961	famous_faces	38.296	36.766
39.349	2.507	famous_faces_baseline	1	left	0.991	famous_faces_baseline	41.834	40.34
42.692	2.508	recently_learned_faces_baseline	1	left	0.796	recently_learned_faces_baseline	45.171	43.488
46.32	2.507	famous_faces_false_combination	1	right	1.206	famous_faces	48.81	47.526
49.713	2.508	famous_faces_baseline	1	right	1.185	famous_faces_baseline	52.198	50.898
55.297	2.507	famous_faces_baseline	1	right	0.91	famous_faces_baseline	57.788	56.207
58.74	2.508	recently_learned_faces_correct_combination	1	left	1.882	recently_learned_faces	61.226	60.622
62.334	2.508	recently_learned_faces_false_combination	1	right	1.222	recently_learned_faces	64.815	63.556
65.862	2.524	famous_faces_correct_combination	0	right	0.895	famous_faces	68.354	66.757
69.406	2.507	famous_faces_false_combination	1	right	1.336	famous_faces	71.892	70.742
72.699	2.507	recently_learned_faces_false_combination	1	right	1.783	recently_learned_faces	75.179	74.482
76.276	2.508	famous_faces_false_combination	1	right	1.147	famous_faces	78.768	77.423
79.87	2.508	recently_learned_faces_false_combination	1	right	1.132	recently_learned_faces	82.357	81.002
83.314	2.507	recently_learned_faces_false_combination	1	right	1.282	recently_learned_faces	85.795	84.596
86.691	2.507	famous_faces_baseline	1	right	0.941	famous_faces_baseline	89.182	87.632
90.134	2.508	famous_faces_baseline	1	right	0.8	famous_faces_baseline	92.62	90.934
93.728	2.508	famous_faces_false_combination	1	right	0.881	famous_faces	96.209	94.609
97.306	2.507	recently_learned_faces_false_combination	1	right	1.501	recently_learned_faces	99.798	98.807
102.956	2.507	recently_learned_faces_correct_combination	1	left	1.143	recently_learned_faces	105.438	104.099
106.383	2.507	famous_faces_correct_combination	1	left	1.238	famous_faces	108.876	107.621
109.726	2.508	recently_learned_faces_correct_combination	1	left	0.971	recently_learned_faces	112.213	110.697
113.32	2.508	recently_learned_faces_false_combination	1	right	1.279	recently_learned_faces	115.802	114.599
116.747	2.508	recently_learned_faces_correct_combination	1	left	1.032	recently_learned_faces	119.24	117.779
120.291	2.508	famous_faces_correct_combination	1	left	0.96	famous_faces	122.779	121.251
123.735	2.507	famous_faces_correct_combination	1	left	0.836	famous_faces	126.217	124.571
127.362	2.525	recently_learned_faces_correct_combination	1	left	1.038	recently_learned_faces	129.856	128.4
130.806	2.508	famous_faces_baseline	0	right	0.71	famous_faces_baseline	133.294	131.516
134.149	2.508	recently_learned_faces_baseline	1	right	0.859	recently_learned_faces_baseline	136.631	135.008
137.677	2.507	famous_faces_baseline	1	left	0.836	famous_faces_baseline	140.169	138.513
141.12	2.508	famous_faces_correct_combination	1	left	0.85	famous_faces	143.607	141.97
144.764	2.508	recently_learned_faces_correct_combination	1	left	1.098	recently_learned_faces	147.246	145.862
150.348	2.507	famous_faces_baseline	1	right	0.943	famous_faces_baseline	152.838	151.291
153.741	2.508	famous_faces_correct_combination	1	left	0.972	famous_faces	156.226	154.713
157.386	2.507	famous_faces_baseline	1	right	0.933	famous_faces_baseline	159.865	158.319
160.762	2.508	recently_learned_faces_correct_combination	1	left	0.778	recently_learned_faces	163.252	161.54
164.407	2.507	recently_learned_faces_baseline	1	left	0.885	recently_learned_faces_baseline	166.891	165.292
167.8	2.508	recently_learned_faces_correct_combination	1	left	0.867	recently_learned_faces	170.279	168.667
171.177	2.507	recently_learned_faces_correct_combination	1	left	0.9	recently_learned_faces	173.667	172.077
174.721	2.507	recently_learned_faces_correct_combination	1	left	0.88	recently_learned_faces	177.205	175.601
178.365	2.508	famous_faces_false_combination	0	left	0.866	famous_faces	180.844	179.231
181.792	2.508	recently_learned_faces_baseline	1	left	1.043	recently_learned_faces_baseline	184.282	182.835
185.135	2.508	famous_faces_false_combination	1	right	1.066	famous_faces	187.619	186.201
188.78	2.507	famous_faces_false_combination	1	right	0.968	famous_faces	191.258	189.748
192.307	2.507	famous_faces_baseline	1	right	1.111	famous_faces_baseline	194.796	193.418
197.957	2.508	recently_learned_faces_false_combination	1	right	1.02	recently_learned_faces	200.437	198.977
201.334	2.507	famous_faces_false_combination	0	left	1.343	famous_faces	203.825	202.677
204.878	2.507	recently_learned_faces_correct_combination	1	left	1.034	recently_learned_faces	207.364	205.912
208.271	2.508	famous_faces_false_combination	1	right	1.013	famous_faces	210.751	209.284
211.698	2.508	famous_faces_baseline	1	left	0.898	famous_faces_baseline	214.189	212.596
215.393	2.507	recently_learned_faces_false_combination	1	right	1.215	recently_learned_faces	217.878	216.608
218.836	2.508	recently_learned_faces_false_combination	1	right	1.105	recently_learned_faces	221.316	219.941
222.263	2.508	famous_faces_correct_combination	1	left	0.951	famous_faces	224.754	223.214
225.707	2.507	recently_learned_faces_baseline	1	right	0.721	recently_learned_faces_baseline	228.192	226.428
229.15	2.508	famous_faces_baseline	1	right	0.714	famous_faces_baseline	231.63	229.864
232.728	2.507	recently_learned_faces_baseline	1	left	0.861	recently_learned_faces_baseline	235.219	233.589
236.322	2.507	recently_learned_faces_baseline	1	right	0.736	recently_learned_faces_baseline	238.808	237.058
239.665	2.508	recently_learned_faces_false_combination	1	right	1.396	recently_learned_faces	242.145	241.061
245.399	2.508	recently_learned_faces_baseline	1	right	0.86	recently_learned_faces_baseline	247.887	246.259
248.843	2.507	famous_faces_correct_combination	1	left	0.903	famous_faces	251.325	249.746
252.42	2.524	famous_faces_correct_combination	1	left	0.858	famous_faces	254.914	253.278
255.764	2.507	famous_faces_baseline	1	right	0.712	famous_faces_baseline	258.251	256.476
259.207	2.508	recently_learned_faces_correct_combination	1	left	2.156	recently_learned_faces	261.689	261.363
262.785	2.524	recently_learned_faces_correct_combination	1	left	2.296	recently_learned_faces	265.278	265.081
266.328	2.508	famous_faces_correct_combination	1	left	1.076	famous_faces	268.817	267.404
269.672	2.507	famous_faces_false_combination	1	right	1.024	famous_faces	272.154	270.696
273.35	2.524	famous_faces_correct_combination	1	left	0.851	famous_faces	275.843	274.201
276.693	2.507	famous_faces_baseline	1	left	1.118	famous_faces_baseline	279.18	277.811
280.287	2.507	recently_learned_faces_correct_combination	1	left	1.09	recently_learned_faces	282.769	281.377
283.614	2.507	famous_faces_false_combination	1	right	0.953	famous_faces	286.106	284.567
287.158	2.507	recently_learned_faces_correct_combination	1	left	1.882	recently_learned_faces	289.644	289.04
292.741	2.524	recently_learned_faces_correct_combination	1	left	0.972	recently_learned_faces	295.235	293.713
296.285	2.507	famous_faces_false_combination	1	right	1.536	famous_faces	298.773	297.821
299.829	2.507	famous_faces_false_combination	1	right	1.041	famous_faces	302.312	300.87
303.423	2.507	recently_learned_faces_baseline	1	right	1.218	recently_learned_faces_baseline	305.901	304.641
306.85	2.507	famous_faces_correct_combination	1	left	0.858	famous_faces	309.339	307.708
310.293	2.508	recently_learned_faces_baseline	1	left	0.881	recently_learned_faces_baseline	312.777	311.174
313.888	2.507	famous_faces_correct_combination	1	left	0.763	famous_faces	316.366	314.651
317.214	2.508	recently_learned_faces_correct_combination	1	left	0.834	recently_learned_faces	319.703	318.048
320.808	2.508	recently_learned_faces_false_combination	1	right	0.972	recently_learned_faces	323.292	321.78
324.135	2.524	recently_learned_faces_false_combination	1	right	1.949	recently_learned_faces	326.629	326.084
327.829	2.508	recently_learned_faces_correct_combination	1	left	1.546	recently_learned_faces	330.318	329.375
331.223	2.507	recently_learned_faces_baseline	1	right	0.984	recently_learned_faces_baseline	333.706	332.207
334.65	2.524	famous_faces_correct_combination	1	left	0.955	famous_faces	337.144	335.605
340.45	2.508	recently_learned_faces_baseline	1	left	1.168	recently_learned_faces_baseline	342.935	341.618
343.744	2.507	recently_learned_faces_baseline	1	right	0.863	recently_learned_faces_baseline	346.222	344.607
347.321	2.508	famous_faces_false_combination	1	right	1.264	famous_faces	349.811	348.585
350.765	2.507	recently_learned_faces_correct_combination	0	right	2.162	recently_learned_faces	353.249	352.927
354.359	2.507	famous_faces_false_combination	1	right	0.96	famous_faces	356.838	355.319
357.685	2.508	recently_learned_faces_baseline	1	right	0.965	recently_learned_faces_baseline	360.175	358.65
361.33	2.507	recently_learned_faces_baseline	1	left	1.006	recently_learned_faces_baseline	363.814	362.336
364.706	2.525	recently_learned_faces_false_combination	1	right	1.058	recently_learned_faces	367.201	365.764
368.25	2.508	famous_faces_false_combination	1	right	0.923	famous_faces	370.74	369.173
371.844	2.508	famous_faces_correct_combination	1	left	1.284	famous_faces	374.329	373.128
375.288	2.508	famous_faces_false_combination	1	right	0.841	famous_faces	377.767	376.129
378.815	2.508	recently_learned_faces_baseline	1	right	0.817	recently_learned_faces_baseline	381.305	379.632
382.159	2.507	recently_learned_faces_false_combination	1	right	1.396	recently_learned_faces	384.642	383.555
387.742	2.524	recently_learned_faces_baseline	1	left	0.914	recently_learned_faces_baseline	390.234	388.656
391.336	2.508	famous_faces_false_combination	1	right	1.277	famous_faces	393.823	392.613
394.78	2.507	famous_faces_correct_combination	1	left	0.865	famous_faces	397.261	395.645
398.357	2.524	recently_learned_faces_baseline	1	right	0.757	recently_learned_faces_baseline	400.85	399.114
401.901	2.508	recently_learned_faces_correct_combination	1	left	1.243	recently_learned_faces	404.388	403.144
405.244	2.508	famous_faces_correct_combination	1	left	1	famous_faces	407.725	406.244
408.872	2.507	recently_learned_faces_false_combination	1	right	1.102	recently_learned_faces	411.364	409.974
412.316	2.507	famous_faces_correct_combination	1	left	1.003	famous_faces	414.802	413.319
415.659	2.507	famous_faces_false_combination	1	right	0.914	famous_faces	418.139	416.573
419.236	2.508	famous_faces_baseline	1	right	0.88	famous_faces_baseline	421.728	420.116
422.83	2.508	famous_faces_correct_combination	1	left	0.972	famous_faces	425.317	423.802
426.174	2.507	famous_faces_baseline	1	right	0.68	famous_faces_baseline	428.654	426.854
429.601	2.507	famous_faces_baseline	1	left	1.133	famous_faces_baseline	432.092	430.734
435.301	2.508	recently_learned_faces_baseline	1	left	0.676	recently_learned_faces_baseline	437.783	435.977
438.929	2.524	recently_learned_faces_false_combination	0	left	1.131	recently_learned_faces	441.422	440.06
442.222	2.507	recently_learned_faces_correct_combination	0	right	1.123	recently_learned_faces	444.709	443.345
445.866	2.508	recently_learned_faces_baseline	1	left	0.826	recently_learned_faces_baseline	448.348	446.692
449.293	2.524	recently_learned_faces_false_combination	1	right	1.092	recently_learned_faces	451.786	450.385
452.686	2.508	recently_learned_faces_baseline	1	left	1.059	recently_learned_faces_baseline	455.174	453.745
456.381	2.507	recently_learned_faces_baseline	1	left	0.927	recently_learned_faces_baseline	458.863	457.308
459.808	2.524	famous_faces_baseline	1	left	0.799	famous_faces_baseline	462.301	460.607
463.251	2.508	famous_faces_correct_combination	1	left	0.792	famous_faces	465.739	464.043
466.695	2.508	famous_faces_baseline	1	right	0.777	famous_faces_baseline	469.177	467.472
470.323	2.524	famous_faces_false_combination	1	right	1.098	famous_faces	472.816	471.421
473.666	2.507	famous_faces_false_combination	1	right	0.918	famous_faces	476.153	474.584
477.21	2.507	recently_learned_faces_baseline	1	left	0.774	recently_learned_faces_baseline	479.692	477.984
482.843	2.508	famous_faces_baseline	1	right	0.837	famous_faces_baseline	485.333	483.68
486.237	2.507	recently_learned_faces_correct_combination	1	left	1.218	recently_learned_faces	488.721	487.455
489.781	2.507	recently_learned_faces_baseline	1	left	0.906	recently_learned_faces_baseline	492.259	490.687
493.358	2.508	recently_learned_faces_correct_combination	1	left	1.226	recently_learned_faces	495.848	494.584
496.902	2.508	famous_faces_baseline	1	left	0.704	famous_faces_baseline	499.386	497.606
500.229	2.524	recently_learned_faces_false_combination	1	right	0.882	recently_learned_faces	502.723	501.111
503.773	2.507	famous_faces_false_combination	1	right	1.38	famous_faces	506.262	505.153
507.317	2.507	recently_learned_faces_baseline	1	left	1.027	recently_learned_faces_baseline	509.801	508.344
510.643	2.525	famous_faces_baseline	1	right	0.755	famous_faces_baseline	513.138	511.398
514.338	2.507	recently_learned_faces_false_combination	1	right	1.173	recently_learned_faces	516.827	515.511
517.681	2.508	famous_faces_baseline	1	left	0.866	famous_faces_baseline	520.164	518.547
521.309	2.524	famous_faces_false_combination	1	right	1.122	famous_faces	523.803	522.431
524.602	2.507	recently_learned_faces_false_combination	1	right	1.145	recently_learned_faces	527.09	525.747
530.453	2.507	famous_faces_correct_combination	1	left	0.862	famous_faces	532.933	531.315
533.829	2.508	recently_learned_faces_false_combination	1	right	1.127	recently_learned_faces	536.321	534.956
537.373	2.508	recently_learned_faces_baseline	1	right	0.93	recently_learned_faces_baseline	539.86	538.303
540.717	2.507	recently_learned_faces_correct_combination	1	left	1.514	recently_learned_faces	543.197	542.231
544.244	2.507	famous_faces_correct_combination	1	left	0.879	famous_faces	546.735	545.123
547.838	2.508	famous_faces_correct_combination	1	left	1.025	famous_faces	550.324	548.863
551.382	2.507	recently_learned_faces_false_combination	1	right	1.018	recently_learned_faces	553.862	552.4
554.709	2.507	famous_faces_baseline	1	left	1.538	famous_faces_baseline	557.199	556.247
558.253	2.507	famous_faces_false_combination	1	right	0.957	famous_faces	560.738	559.21
561.646	2.508	famous_faces_false_combination	1	right	0.978	famous_faces	564.126	562.624
565.223	2.508	famous_faces_false_combination	1	right	0.951	famous_faces	567.715	566.174
568.818	2.507	recently_learned_faces_false_combination	1	right	1.315	recently_learned_faces	571.304	570.133
572.111	2.507	recently_learned_faces_false_combination	1	right	2.113	recently_learned_faces	574.591	574.224
577.744	2.508	recently_learned_faces_baseline	1	left	1.027	recently_learned_faces_baseline	580.231	578.771
581.338	2.508	recently_learned_faces_baseline	1	right	0.841	recently_learned_faces_baseline	583.82	582.179
584.765	2.524	recently_learned_faces_false_combination	0	left	1.536	recently_learned_faces	587.258	586.301
588.41	2.507	famous_faces_correct_combination	1	left	0.814	famous_faces	590.897	589.224
591.853	2.508	recently_learned_faces_baseline	1	right	0.815	recently_learned_faces_baseline	594.335	592.668
595.18	2.507	famous_faces_correct_combination	1	left	0.749	famous_faces	597.672	595.929
598.774	2.507	famous_faces_baseline	1	left	0.719	famous_faces_baseline	601.261	599.493
602.218	2.507	recently_learned_faces_false_combination	1	right	2.363	recently_learned_faces	604.699	604.581
605.795	2.524	recently_learned_faces_false_combination	1	right	0.985	recently_learned_faces	608.288	606.78
609.339	2.507	famous_faces_baseline	1	right	0.862	famous_faces_baseline	611.826	610.201
612.682	2.508	famous_faces_baseline	1	right	1.054	famous_faces_baseline	615.163	613.736
616.209	2.525	recently_learned_faces_baseline	1	left	1.021	recently_learned_faces_baseline	618.702	617.23
619.753	2.508	famous_faces_correct_combination	1	left	1.091	famous_faces	622.241	620.844
625.437	2.524	famous_faces_correct_combination	1	left	0.844	famous_faces	627.93	626.281
628.831	2.507	famous_faces_false_combination	1	right	1.328	famous_faces	631.318	630.159
632.374	2.508	famous_faces_correct_combination	1	left	1.334	famous_faces	634.857	633.708
635.701	2.508	famous_faces_false_combination	1	right	0.917	famous_faces	638.194	636.618
639.245	2.508	recently_learned_faces_false_combination	1	right	1.021	recently_learned_faces	641.732	640.266
642.789	2.507	famous_faces_false_combination	1	right	0.872	famous_faces	645.271	643.661
646.216	2.507	famous_faces_false_combination	1	right	1.214	famous_faces	648.709	647.43
649.86	2.508	recently_learned_faces_correct_combination	1	left	1.328	recently_learned_faces	652.348	651.188
653.153	2.508	famous_faces_baseline	1	left	0.989	famous_faces_baseline	655.635	654.142
656.781	2.524	recently_learned_faces_correct_combination	0	right	0.947	recently_learned_faces	659.274	657.728
660.325	2.507	recently_learned_faces_false_combination	1	right	0.954	recently_learned_faces	662.812	661.279
663.618	2.508	famous_faces_baseline	1	right	0.786	famous_faces_baseline	666.099	664.404
667.145	2.508	famous_faces_false_combination	1	right	0.871	famous_faces	669.637	668.016
672.946	2.507	recently_learned_faces_correct_combination	0	right	0.909	recently_learned_faces	675.43	673.855
676.339	2.508	recently_learned_faces_baseline	1	left	1.098	recently_learned_faces_baseline	678.818	677.437
679.716	2.508	recently_learned_faces_correct_combination	1	left	1.129	recently_learned_faces	682.206	680.845
683.36	2.508	famous_faces_false_combination	1	right	1.059	famous_faces	685.845	684.419
686.737	2.524	recently_learned_faces_correct_combination	1	left	1.299	recently_learned_faces	689.232	688.036
690.331	2.508	famous_faces_baseline	1	left	0.796	famous_faces_baseline	692.821	691.127
693.775	2.508	famous_faces_baseline	1	left	0.698	famous_faces_baseline	696.259	694.473
697.219	2.507	famous_faces_correct_combination	1	left	1.263	famous_faces	699.697	698.482
700.646	2.507	recently_learned_faces_false_combination	1	right	1.184	recently_learned_faces	703.135	701.83
704.34	2.507	recently_learned_faces_correct_combination	1	left	0.933	recently_learned_faces	706.824	705.273
707.784	2.507	recently_learned_faces_correct_combination	1	left	1.131	recently_learned_faces	710.262	708.915
711.11	2.508	famous_faces_baseline	1	left	0.862	famous_faces_baseline	713.599	711.972
714.654	2.508	recently_learned_faces_baseline	1	right	0.774	recently_learned_faces_baseline	717.137	715.428
720.388	2.524	famous_faces_false_combination	1	right	0.909	famous_faces	722.88	721.297
723.782	2.507	famous_faces_baseline	0	right	0.915	famous_faces_baseline	726.267	724.697
727.325	2.508	recently_learned_faces_false_combination	1	right	1.045	recently_learned_faces	729.806	728.37
730.702	2.508	famous_faces_correct_combination	1	left	0.868	famous_faces	733.194	731.57
734.397	2.507	recently_learned_faces_correct_combination	1	left	1.014	recently_learned_faces	736.883	735.411
737.74	2.507	recently_learned_faces_correct_combination	1	left	0.814	recently_learned_faces	740.22	738.554
741.167	2.507	famous_faces_correct_combination	1	left	0.766	famous_faces	743.658	741.933
744.761	2.508	recently_learned_faces_correct_combination	1	left	0.943	recently_learned_faces	747.247	745.704
748.305	2.507	recently_learned_faces_false_combination	1	right	1.102	recently_learned_faces	750.786	749.407
751.832	2.508	recently_learned_faces_baseline	1	right	0.789	recently_learned_faces_baseline	754.324	752.621
755.276	2.507	recently_learned_faces_correct_combination	1	left	0.991	recently_learned_faces	757.762	756.267
758.82	2.507	recently_learned_faces_false_combination	1	right	0.959	recently_learned_faces	761.3	759.779
762.146	2.508	recently_learned_faces_correct_combination	1	left	0.976	recently_learned_faces	764.637	763.122
767.847	2.507	recently_learned_faces_baseline	1	right	0.933	recently_learned_faces_baseline	770.329	768.78
771.374	2.524	famous_faces_false_combination	1	right	1.065	famous_faces	773.868	772.439
774.918	2.507	famous_faces_correct_combination	1	left	0.82	famous_faces	777.406	775.738
778.261	2.508	recently_learned_faces_false_combination	1	right	2.1	recently_learned_faces	780.743	780.361
781.688	2.524	famous_faces_baseline	1	left	0.88	famous_faces_baseline	784.181	782.568
785.282	2.508	famous_faces_correct_combination	0	right	0.889	famous_faces	787.77	786.171
788.676	2.507	famous_faces_correct_combination	1	left	0.887	famous_faces	791.158	789.563
792.353	2.525	famous_faces_correct_combination	1	left	0.934	famous_faces	794.847	793.287
