"onset"	"trial_type"	"accuracy"	"button"	"response_time"	"duration"	"trial_type_less_granular"	"time_to_offset_alternative_onset"	"time_to_RT_alternative_onset_or_duration"
10.406	"recently_learned_faces_baseline"	0	NA	NA	0.017	"recently_learned_faces_baseline"	10.406	NA
11.242	"recently_learned_faces_baseline"	0	NA	NA	2.507	"recently_learned_faces_baseline"	13.727	NA
14.886	"famous_faces_baseline"	1	"left"	1.919	2.508	"famous_faces_baseline"	17.366	16.805
18.413	"famous_faces_baseline"	0	NA	NA	2.508	"famous_faces_baseline"	20.904	NA
21.807	"famous_faces_false_combination"	1	"right"	1.168	2.507	"famous_faces"	24.292	22.975
25.25	"famous_faces_correct_combination"	0	NA	NA	2.508	"famous_faces"	27.73	NA
28.878	"recently_learned_faces_false_combination"	1	"right"	1.836	2.507	"recently_learned_faces"	31.369	30.714
32.271	"recently_learned_faces_false_combination"	0	NA	NA	2.508	"recently_learned_faces"	34.757	NA
35.665	"famous_faces_false_combination"	1	"right"	1.304	2.507	"famous_faces"	38.145	36.969
39.292	"famous_faces_baseline"	0	NA	NA	2.508	"famous_faces_baseline"	41.784	NA
42.686	"recently_learned_faces_baseline"	0	"right"	1.296	2.507	"recently_learned_faces_baseline"	45.171	43.982
46.229	"famous_faces_false_combination"	0	NA	NA	2.508	"famous_faces"	48.71	NA
49.807	"famous_faces_baseline"	0	"left"	2.097	2.507	"famous_faces_baseline"	52.299	51.904
55.256	"famous_faces_baseline"	0	NA	NA	2.508	"famous_faces_baseline"	57.737	NA
58.884	"recently_learned_faces_correct_combination"	1	"left"	2.376	2.507	"recently_learned_faces"	61.376	61.26
62.428	"recently_learned_faces_false_combination"	1	"right"	2.473	2.507	"recently_learned_faces"	64.914	64.901
65.771	"famous_faces_correct_combination"	1	"left"	1.474	2.507	"famous_faces"	68.251	67.245
69.298	"famous_faces_false_combination"	1	"right"	1.011	2.508	"famous_faces"	71.79	70.309
72.842	"recently_learned_faces_false_combination"	0	"left"	2.005	2.508	"recently_learned_faces"	75.329	74.847
76.386	"famous_faces_false_combination"	0	"left"	1.744	2.507	"famous_faces"	78.867	78.13
79.763	"recently_learned_faces_false_combination"	1	"right"	1.482	2.507	"recently_learned_faces"	82.255	81.245
83.156	"recently_learned_faces_false_combination"	1	"right"	1.575	2.508	"recently_learned_faces"	85.643	84.731
86.7	"famous_faces_baseline"	1	"right"	1.474	2.507	"famous_faces_baseline"	89.181	88.174
90.127	"famous_faces_baseline"	1	"right"	1.621	2.507	"famous_faces_baseline"	92.619	91.748
93.721	"famous_faces_false_combination"	1	"right"	1.257	2.507	"famous_faces"	96.208	94.978
97.164	"recently_learned_faces_false_combination"	1	"right"	1.52	2.508	"recently_learned_faces"	99.646	98.684
102.748	"recently_learned_faces_correct_combination"	1	"left"	1.489	2.507	"recently_learned_faces"	105.236	104.237
106.392	"famous_faces_correct_combination"	1	"left"	1.851	2.507	"famous_faces"	108.875	108.243
109.769	"recently_learned_faces_correct_combination"	1	"left"	1.648	2.524	"recently_learned_faces"	112.262	111.417
113.413	"recently_learned_faces_false_combination"	1	"right"	1.625	2.507	"recently_learned_faces"	115.901	115.038
116.806	"recently_learned_faces_correct_combination"	0	"right"	1.519	2.508	"recently_learned_faces"	119.289	118.325
120.384	"famous_faces_correct_combination"	1	"left"	1.595	2.524	"famous_faces"	122.878	121.979
123.677	"famous_faces_correct_combination"	1	"left"	1.504	2.507	"famous_faces"	126.165	125.181
127.221	"recently_learned_faces_correct_combination"	1	"left"	1.676	2.507	"recently_learned_faces"	129.703	128.897
130.798	"famous_faces_baseline"	0	"right"	1.18	2.524	"famous_faces_baseline"	133.292	131.978
134.242	"recently_learned_faces_baseline"	0	NA	NA	2.507	"recently_learned_faces_baseline"	136.73	NA
137.635	"famous_faces_baseline"	0	"right"	1.622	2.507	"famous_faces_baseline"	140.118	139.257
141.212	"famous_faces_correct_combination"	0	NA	NA	2.524	"famous_faces"	143.707	NA
144.756	"recently_learned_faces_correct_combination"	0	"right"	1.506	2.508	"recently_learned_faces"	147.246	146.262
150.256	"famous_faces_baseline"	1	"right"	1.624	2.507	"famous_faces_baseline"	152.735	151.88
153.934	"famous_faces_correct_combination"	0	"right"	1.347	2.507	"famous_faces"	156.424	155.281
157.277	"famous_faces_baseline"	1	"right"	1.643	2.507	"famous_faces_baseline"	159.761	158.92
160.871	"recently_learned_faces_correct_combination"	1	"left"	1.46	2.507	"recently_learned_faces"	163.35	162.331
164.298	"recently_learned_faces_baseline"	1	"left"	1.601	2.507	"recently_learned_faces_baseline"	166.788	165.899
167.691	"recently_learned_faces_correct_combination"	1	"left"	1.58	2.508	"recently_learned_faces"	170.176	169.271
171.385	"recently_learned_faces_correct_combination"	1	"left"	1.329	2.508	"recently_learned_faces"	173.865	172.714
174.762	"recently_learned_faces_correct_combination"	0	"right"	2.292	2.524	"recently_learned_faces"	177.253	177.054
178.306	"famous_faces_false_combination"	0	"left"	1.132	2.508	"famous_faces"	180.792	179.438
181.7	"recently_learned_faces_baseline"	1	"left"	0.915	2.507	"recently_learned_faces_baseline"	184.179	182.615
185.277	"famous_faces_false_combination"	0	"left"	1.11	2.507	"famous_faces"	187.768	186.387
188.72	"famous_faces_false_combination"	1	"right"	1.698	2.508	"famous_faces"	191.206	190.418
192.114	"famous_faces_baseline"	1	"right"	1.726	2.507	"famous_faces_baseline"	194.594	193.84
197.797	"recently_learned_faces_false_combination"	0	"left"	1.433	2.508	"recently_learned_faces"	200.283	199.23
201.241	"famous_faces_false_combination"	1	"right"	2.243	2.508	"famous_faces"	203.721	203.484
204.919	"recently_learned_faces_correct_combination"	0	"right"	1.446	2.507	"recently_learned_faces"	207.41	206.365
208.312	"famous_faces_false_combination"	0	NA	NA	2.508	"famous_faces"	210.798	NA
211.856	"famous_faces_baseline"	0	"right"	1.158	2.507	"famous_faces_baseline"	214.337	213.014
215.383	"recently_learned_faces_false_combination"	0	"left"	2.102	2.508	"recently_learned_faces"	217.875	217.485
218.676	"recently_learned_faces_false_combination"	0	"left"	1.699	2.508	"recently_learned_faces"	221.162	220.375
222.32	"famous_faces_correct_combination"	1	"left"	1.303	2.508	"famous_faces"	224.801	223.623
225.697	"recently_learned_faces_baseline"	1	"right"	1.395	2.508	"recently_learned_faces_baseline"	228.188	227.092
229.241	"famous_faces_baseline"	1	"right"	1.054	2.508	"famous_faces_baseline"	231.727	230.295
232.635	"recently_learned_faces_baseline"	0	"right"	1.432	2.507	"recently_learned_faces_baseline"	235.115	234.067
236.162	"recently_learned_faces_baseline"	1	"right"	1.989	2.507	"recently_learned_faces_baseline"	238.653	238.151
239.806	"recently_learned_faces_false_combination"	0	"left"	2.011	2.507	"recently_learned_faces"	242.292	241.817
245.339	"recently_learned_faces_baseline"	1	"right"	2.152	2.524	"recently_learned_faces_baseline"	247.833	247.491
248.933	"famous_faces_correct_combination"	0	"right"	1.583	2.508	"famous_faces"	251.422	250.516
252.276	"famous_faces_correct_combination"	1	"left"	1.43	2.508	"famous_faces"	254.759	253.706
255.854	"famous_faces_baseline"	1	"right"	1.168	2.524	"famous_faces_baseline"	258.348	257.022
259.197	"recently_learned_faces_correct_combination"	1	"left"	1.782	2.507	"recently_learned_faces"	261.685	260.979
262.841	"recently_learned_faces_correct_combination"	0	"right"	1.753	2.508	"recently_learned_faces"	265.324	264.594
266.368	"famous_faces_correct_combination"	1	"left"	1.251	2.508	"famous_faces"	268.862	267.619
269.712	"famous_faces_false_combination"	1	"right"	1.98	2.507	"famous_faces"	272.199	271.692
273.155	"famous_faces_correct_combination"	0	"right"	1.397	2.508	"famous_faces"	275.637	274.552
276.732	"famous_faces_baseline"	1	"left"	1.901	2.525	"famous_faces_baseline"	279.226	278.633
280.176	"recently_learned_faces_correct_combination"	0	NA	NA	2.508	"recently_learned_faces"	282.664	NA
283.72	"famous_faces_false_combination"	1	"right"	1.584	2.507	"famous_faces"	286.203	285.304
287.097	"recently_learned_faces_correct_combination"	0	"right"	1.352	2.524	"recently_learned_faces"	289.591	288.449
292.897	"recently_learned_faces_correct_combination"	1	"left"	1.297	2.508	"recently_learned_faces"	295.381	294.194
296.341	"famous_faces_false_combination"	0	"left"	1.094	2.507	"famous_faces"	298.819	297.435
299.718	"famous_faces_false_combination"	1	"right"	1.509	2.507	"famous_faces"	302.207	301.227
303.412	"recently_learned_faces_baseline"	1	"right"	2.346	2.507	"recently_learned_faces_baseline"	305.896	305.758
306.739	"famous_faces_correct_combination"	1	"left"	1.611	2.524	"famous_faces"	309.233	308.35
310.182	"recently_learned_faces_baseline"	1	"left"	1.215	2.508	"recently_learned_faces_baseline"	312.671	311.397
313.726	"famous_faces_correct_combination"	1	"left"	1.313	2.507	"famous_faces"	316.209	315.039
317.353	"recently_learned_faces_correct_combination"	0	"right"	1.5	2.525	"recently_learned_faces"	319.848	318.853
320.747	"recently_learned_faces_false_combination"	1	"right"	1.448	2.507	"recently_learned_faces"	323.236	322.195
324.291	"recently_learned_faces_false_combination"	0	"left"	1.253	2.507	"recently_learned_faces"	326.775	325.544
327.734	"recently_learned_faces_correct_combination"	0	NA	NA	2.508	"recently_learned_faces"	330.213	NA
331.161	"recently_learned_faces_baseline"	0	"left"	1.348	2.508	"recently_learned_faces_baseline"	333.651	332.509
334.605	"famous_faces_correct_combination"	1	"left"	1.058	2.507	"famous_faces"	337.089	335.663
340.389	"recently_learned_faces_baseline"	0	"right"	1.487	2.507	"recently_learned_faces_baseline"	342.88	341.876
343.732	"recently_learned_faces_baseline"	1	"right"	1.011	2.507	"recently_learned_faces_baseline"	346.217	344.743
347.276	"famous_faces_false_combination"	1	"right"	1.765	2.507	"famous_faces"	349.755	349.041
350.903	"recently_learned_faces_correct_combination"	1	"left"	1.445	2.508	"recently_learned_faces"	353.394	352.348
354.297	"famous_faces_false_combination"	1	"right"	1.311	2.507	"famous_faces"	356.782	355.608
357.74	"recently_learned_faces_baseline"	0	"left"	2.037	2.508	"recently_learned_faces_baseline"	360.22	359.777
361.268	"recently_learned_faces_baseline"	0	"right"	1.092	2.507	"recently_learned_faces_baseline"	363.759	362.36
364.811	"recently_learned_faces_false_combination"	0	NA	NA	2.508	"recently_learned_faces"	367.298	NA
368.155	"famous_faces_false_combination"	0	"left"	1.754	2.507	"famous_faces"	370.635	369.909
371.832	"famous_faces_correct_combination"	1	"left"	0.915	2.508	"famous_faces"	374.324	372.747
375.276	"famous_faces_false_combination"	1	"right"	1.153	2.507	"famous_faces"	377.762	376.429
378.619	"recently_learned_faces_baseline"	1	"right"	1.064	2.508	"recently_learned_faces_baseline"	381.099	379.683
382.146	"recently_learned_faces_false_combination"	1	"right"	1.878	2.508	"recently_learned_faces"	384.637	384.024
387.797	"recently_learned_faces_baseline"	0	"right"	1.074	2.507	"recently_learned_faces_baseline"	390.277	388.871
391.374	"famous_faces_false_combination"	1	"right"	2.372	2.507	"famous_faces"	393.866	393.746
394.918	"famous_faces_correct_combination"	1	"left"	1.092	2.507	"famous_faces"	397.404	396.01
398.311	"recently_learned_faces_baseline"	1	"right"	1.234	2.508	"recently_learned_faces_baseline"	400.792	399.545
401.688	"recently_learned_faces_correct_combination"	0	"right"	1.675	2.507	"recently_learned_faces"	404.18	403.363
405.282	"famous_faces_correct_combination"	1	"left"	1.022	2.507	"famous_faces"	407.769	406.304
408.726	"recently_learned_faces_false_combination"	1	"right"	1.838	2.507	"recently_learned_faces"	411.207	410.564
412.152	"famous_faces_correct_combination"	1	"left"	1.012	2.508	"famous_faces"	414.645	413.164
415.797	"famous_faces_false_combination"	0	"left"	1.299	2.507	"famous_faces"	418.284	417.096
419.34	"famous_faces_baseline"	1	"right"	1.766	2.508	"famous_faces_baseline"	421.822	421.106
422.667	"famous_faces_correct_combination"	1	"left"	1.316	2.508	"famous_faces"	425.159	423.983
426.311	"famous_faces_baseline"	1	"right"	1.31	2.508	"famous_faces_baseline"	428.798	427.621
429.755	"famous_faces_baseline"	1	"left"	1.233	2.507	"famous_faces_baseline"	432.236	430.988
435.288	"recently_learned_faces_baseline"	1	"left"	0.867	2.507	"recently_learned_faces_baseline"	437.776	436.155
438.932	"recently_learned_faces_false_combination"	0	"left"	1.756	2.508	"recently_learned_faces"	441.415	440.688
442.209	"recently_learned_faces_correct_combination"	1	"left"	0.887	2.507	"recently_learned_faces"	444.702	443.096
445.803	"recently_learned_faces_baseline"	0	"right"	1.436	2.507	"recently_learned_faces_baseline"	448.291	447.239
449.347	"recently_learned_faces_false_combination"	0	"left"	1.585	2.507	"recently_learned_faces"	451.83	450.932
452.723	"recently_learned_faces_baseline"	0	"right"	2.372	2.508	"recently_learned_faces_baseline"	455.217	455.095
456.267	"recently_learned_faces_baseline"	1	"left"	1.071	2.508	"recently_learned_faces_baseline"	458.756	457.338
459.811	"famous_faces_baseline"	1	"left"	1.301	2.507	"famous_faces_baseline"	462.295	461.112
463.138	"famous_faces_correct_combination"	1	"left"	1.187	2.524	"famous_faces"	465.632	464.325
466.832	"famous_faces_baseline"	1	"right"	1.141	2.507	"famous_faces_baseline"	469.321	467.973
470.175	"famous_faces_false_combination"	1	"right"	1.29	2.508	"famous_faces"	472.658	471.465
473.602	"famous_faces_false_combination"	1	"right"	1.05	2.508	"famous_faces"	476.096	474.652
477.246	"recently_learned_faces_baseline"	1	"left"	1.264	2.508	"recently_learned_faces_baseline"	479.735	478.51
482.846	"famous_faces_baseline"	1	"right"	1.426	2.508	"famous_faces_baseline"	485.326	484.272
486.424	"recently_learned_faces_correct_combination"	0	NA	NA	2.507	"recently_learned_faces"	488.915	NA
489.717	"recently_learned_faces_baseline"	0	"right"	1.463	2.507	"recently_learned_faces_baseline"	492.202	491.18
493.361	"recently_learned_faces_correct_combination"	1	"left"	1.837	2.507	"recently_learned_faces"	495.841	495.198
496.738	"famous_faces_baseline"	1	"left"	1.143	2.507	"famous_faces_baseline"	499.228	497.881
500.181	"recently_learned_faces_false_combination"	0	"left"	1.107	2.508	"recently_learned_faces"	502.666	501.288
503.775	"famous_faces_false_combination"	1	"right"	1.819	2.508	"famous_faces"	506.255	505.594
507.202	"recently_learned_faces_baseline"	1	"left"	1.476	2.508	"recently_learned_faces_baseline"	509.693	508.678
510.796	"famous_faces_baseline"	1	"right"	1.031	2.508	"famous_faces_baseline"	513.282	511.827
514.34	"recently_learned_faces_false_combination"	0	"left"	1.716	2.507	"recently_learned_faces"	516.82	516.056
517.667	"famous_faces_baseline"	1	"left"	1.255	2.507	"famous_faces_baseline"	520.157	518.922
521.11	"famous_faces_false_combination"	1	"right"	1.262	2.508	"famous_faces"	523.595	522.372
524.754	"recently_learned_faces_false_combination"	1	"right"	1.257	2.508	"recently_learned_faces"	527.234	526.011
530.237	"famous_faces_correct_combination"	1	"left"	1.028	2.508	"famous_faces"	532.723	531.265
533.831	"recently_learned_faces_false_combination"	1	"right"	1.335	2.508	"recently_learned_faces"	536.312	535.166
537.409	"recently_learned_faces_baseline"	1	"right"	1.362	2.507	"recently_learned_faces_baseline"	539.901	538.771
540.852	"recently_learned_faces_correct_combination"	0	"right"	1.571	2.508	"recently_learned_faces"	543.339	542.423
544.246	"famous_faces_correct_combination"	0	"right"	1.695	2.507	"famous_faces"	546.726	545.941
547.823	"famous_faces_correct_combination"	1	"left"	1.971	2.508	"famous_faces"	550.315	549.794
551.367	"recently_learned_faces_false_combination"	1	"right"	2.242	2.507	"recently_learned_faces"	553.853	553.609
554.71	"famous_faces_baseline"	0	"right"	1.251	2.508	"famous_faces_baseline"	557.19	555.961
558.137	"famous_faces_false_combination"	1	"right"	2.383	2.508	"famous_faces"	560.628	560.52
561.731	"famous_faces_false_combination"	1	"right"	1.625	2.508	"famous_faces"	564.217	563.356
565.125	"famous_faces_false_combination"	0	NA	NA	2.507	"famous_faces"	567.605	NA
568.802	"recently_learned_faces_false_combination"	0	"left"	1.403	2.508	"recently_learned_faces"	571.294	570.205
572.145	"recently_learned_faces_false_combination"	0	"left"	1.381	2.508	"recently_learned_faces"	574.631	573.526
577.829	"recently_learned_faces_baseline"	1	"left"	1.514	2.524	"recently_learned_faces_baseline"	580.323	579.343
581.373	"recently_learned_faces_baseline"	1	"right"	1.112	2.507	"recently_learned_faces_baseline"	583.862	582.485
584.716	"recently_learned_faces_false_combination"	0	"left"	1.561	2.508	"recently_learned_faces"	587.199	586.277
588.394	"famous_faces_correct_combination"	1	"left"	1.287	2.507	"famous_faces"	590.888	589.681
591.737	"recently_learned_faces_baseline"	1	"right"	1.073	2.508	"recently_learned_faces_baseline"	594.225	592.81
595.281	"famous_faces_correct_combination"	1	"left"	1.043	2.507	"famous_faces"	597.764	596.324
598.858	"famous_faces_baseline"	0	"right"	1.529	2.525	"famous_faces_baseline"	601.353	600.387
602.202	"recently_learned_faces_false_combination"	0	"left"	2.21	2.507	"recently_learned_faces"	604.69	604.412
605.796	"recently_learned_faces_false_combination"	1	"right"	1.956	2.507	"recently_learned_faces"	608.279	607.752
609.122	"famous_faces_baseline"	1	"right"	1.382	2.524	"famous_faces_baseline"	611.616	610.504
612.666	"famous_faces_baseline"	1	"right"	0.969	2.508	"famous_faces_baseline"	615.154	613.635
616.11	"recently_learned_faces_baseline"	0	"right"	1.138	2.507	"recently_learned_faces_baseline"	618.592	617.248
619.787	"famous_faces_correct_combination"	1	"left"	1.23	2.508	"famous_faces"	622.281	621.017
625.438	"famous_faces_correct_combination"	0	"right"	1.321	2.306	"famous_faces"	627.72	626.759
628.764	"famous_faces_false_combination"	0	"left"	1.311	2.508	"famous_faces"	631.258	630.075
632.358	"famous_faces_correct_combination"	1	"left"	0.997	2.508	"famous_faces"	634.847	633.355
635.802	"famous_faces_false_combination"	1	"right"	2.302	2.507	"famous_faces"	638.285	638.104
639.396	"recently_learned_faces_false_combination"	1	"right"	1.653	2.507	"recently_learned_faces"	641.874	641.049
642.823	"famous_faces_false_combination"	1	"right"	1.337	2.507	"famous_faces"	645.312	644.16
646.166	"famous_faces_false_combination"	1	"right"	2.092	2.507	"famous_faces"	648.649	648.258
649.76	"recently_learned_faces_correct_combination"	0	"right"	1.745	2.507	"recently_learned_faces"	652.238	651.505
653.187	"famous_faces_baseline"	0	"right"	1.135	2.507	"famous_faces_baseline"	655.676	654.322
656.831	"recently_learned_faces_correct_combination"	1	"left"	1.837	2.507	"recently_learned_faces"	659.315	658.668
660.158	"recently_learned_faces_false_combination"	1	"right"	1.32	2.524	"recently_learned_faces"	662.652	661.478
663.701	"famous_faces_baseline"	1	"right"	1.305	2.508	"famous_faces_baseline"	666.191	665.006
667.245	"famous_faces_false_combination"	1	"right"	1.141	2.508	"famous_faces"	669.73	668.386
672.829	"recently_learned_faces_correct_combination"	1	"left"	1.943	2.507	"recently_learned_faces"	675.32	674.772
676.222	"recently_learned_faces_baseline"	0	"right"	1.273	2.507	"recently_learned_faces_baseline"	678.708	677.495
679.866	"recently_learned_faces_correct_combination"	1	"left"	1.051	2.508	"recently_learned_faces"	682.347	680.917
683.393	"famous_faces_false_combination"	0	"left"	1.904	2.508	"famous_faces"	685.885	685.297
686.737	"recently_learned_faces_correct_combination"	1	"left"	1.861	2.507	"recently_learned_faces"	689.222	688.598
690.18	"famous_faces_baseline"	0	"right"	0.938	2.508	"famous_faces_baseline"	692.66	691.118
693.758	"famous_faces_baseline"	0	"right"	1.187	2.507	"famous_faces_baseline"	696.249	694.945
697.301	"famous_faces_correct_combination"	1	"left"	1.801	2.508	"famous_faces"	699.788	699.102
700.845	"recently_learned_faces_false_combination"	0	"left"	1.644	2.508	"recently_learned_faces"	703.326	702.489
704.172	"recently_learned_faces_correct_combination"	1	"left"	1.83	2.507	"recently_learned_faces"	706.663	706.002
707.816	"recently_learned_faces_correct_combination"	0	"right"	1.261	2.508	"recently_learned_faces"	710.302	709.077
711.26	"famous_faces_baseline"	0	"right"	1.432	2.507	"famous_faces_baseline"	713.74	712.692
714.687	"recently_learned_faces_baseline"	1	"right"	1.306	2.507	"recently_learned_faces_baseline"	717.178	715.993
720.236	"famous_faces_false_combination"	1	"right"	1.397	2.508	"famous_faces"	722.717	721.633
723.814	"famous_faces_baseline"	1	"left"	1.637	2.507	"famous_faces_baseline"	726.306	725.451
727.257	"recently_learned_faces_false_combination"	0	"left"	1.937	2.508	"recently_learned_faces"	729.744	729.194
730.851	"famous_faces_correct_combination"	1	"left"	2.11	2.508	"famous_faces"	733.333	732.961
734.379	"recently_learned_faces_correct_combination"	1	"left"	2.369	2.507	"recently_learned_faces"	736.871	736.748
737.822	"recently_learned_faces_correct_combination"	1	"left"	1.945	2.508	"recently_learned_faces"	740.309	739.767
741.165	"famous_faces_correct_combination"	1	"left"	1.504	2.508	"famous_faces"	743.646	742.669
744.843	"recently_learned_faces_correct_combination"	0	"right"	1.715	2.507	"recently_learned_faces"	747.335	746.558
748.186	"recently_learned_faces_false_combination"	1	"right"	1.309	2.508	"recently_learned_faces"	750.672	749.495
751.73	"recently_learned_faces_baseline"	1	"right"	1.157	2.508	"recently_learned_faces_baseline"	754.211	752.887
755.257	"recently_learned_faces_correct_combination"	0	"right"	1.854	2.508	"recently_learned_faces"	757.75	757.111
758.801	"recently_learned_faces_false_combination"	1	"right"	1.445	2.508	"recently_learned_faces"	761.288	760.246
762.094	"recently_learned_faces_correct_combination"	1	"left"	2.011	2.508	"recently_learned_faces"	764.575	764.105
767.928	"recently_learned_faces_baseline"	1	"right"	1.015	2.508	"recently_learned_faces_baseline"	770.417	768.943
771.322	"famous_faces_false_combination"	1	"right"	1.466	2.507	"famous_faces"	773.805	772.788
774.749	"famous_faces_correct_combination"	1	"left"	1.163	2.524	"famous_faces"	777.243	775.912
778.343	"recently_learned_faces_false_combination"	1	"right"	1.412	2.507	"recently_learned_faces"	780.832	779.755
781.686	"famous_faces_baseline"	0	"right"	1.395	2.508	"famous_faces_baseline"	784.169	783.081
785.263	"famous_faces_correct_combination"	0	NA	NA	2.525	"famous_faces"	787.758	NA
788.707	"famous_faces_correct_combination"	1	"left"	1.132	2.507	"famous_faces"	791.196	789.839
792.351	"famous_faces_correct_combination"	1	"left"	1.039	2.508	"famous_faces"	794.835	793.39
