onset	duration	trial_type	accuracy	button	response_time	time_to_offset_alternative_onset	time_to_RT_alternative_onset_or_duration
10.74	1.788	Visual_Same	1	right	0.905	12.528	11.645
13.331	1.788	Visual_Lure	1	left	0.746	15.119	14.077
15.871	1.789	Visual_Different	1	left	0.707	17.66	16.578
18.412	1.789	Visual_Lure	1	left	0.854	20.201	19.266
20.736	1.789	Visual_Lure	1	left	1.145	22.525	21.881
23.377	1.789	Visual_Different	1	left	0.901	25.166	24.278
25.818	1.788	Visual_Different	1	left	0.793	27.606	26.611
33.441	1.788	Auditory_Different	1	left	1.133	35.229	34.574
35.831	1.789	Auditory_Lure	0	right	0.958	37.62	36.789
38.272	1.788	Auditory_Different	1	left	1.553	40.06	39.825
40.712	1.789	Auditory_Same	1	right	1.217	42.501	41.929
43.337	1.788	Auditory_Same	1	right	1.037	45.125	44.374
45.777	1.789	Auditory_Lure	1	left	1.47	47.566	47.247
48.218	1.789	Auditory_Lure	1	left	1.148	50.007	49.366
55.74	1.789	Visual_Lure	1	left	0.839	57.529	56.579
58.331	1.789	Visual_Different	1	left	0.663	60.12	58.994
60.772	1.789	Visual_Same	1	right	0.858	62.561	61.63
63.213	1.772	Visual_Different	1	left	0.67	64.985	63.883
65.887	1.789	Visual_Different	1	left	0.74	67.676	66.627
68.228	1.788	Visual_Same	1	right	1.234	70.016	69.462
70.819	1.788	Visual_Same	0	NA	NA	72.607	NA
78.241	1.788	Auditory_Same	1	right	1.505	80.029	79.746
80.882	1.789	Auditory_Same	1	right	1.667	82.671	82.549
83.423	1.789	Auditory_Different	1	left	0.902	85.212	84.325
85.696	1.789	Auditory_Same	0	NA	NA	87.485	NA
88.237	1.789	Auditory_Lure	1	left	1.155	90.026	89.392
95.843	1.789	Visual_Lure	1	left	0.853	97.632	96.696
98.434	1.789	Visual_Same	1	right	0.721	100.223	99.155
100.825	1.788	Visual_Lure	1	left	0.862	102.613	101.687
103.249	1.788	Visual_Different	1	left	0.605	105.037	103.854
105.84	1.788	Visual_Different	1	left	0.581	107.628	106.421
108.18	1.789	Visual_Same	1	right	1.389	109.969	109.569
110.821	1.789	Visual_Same	1	right	1.656	112.61	112.477
118.344	1.788	Auditory_Lure	1	left	1.244	120.132	119.588
120.935	1.788	Auditory_Same	1	right	0.864	122.723	121.799
123.359	1.788	Auditory_Lure	1	left	0.906	125.147	124.265
125.799	1.789	Auditory_Different	1	left	1.033	127.588	126.832
128.24	1.789	Auditory_Different	1	left	1.012	130.029	129.252
130.881	1.789	Auditory_Same	1	right	1.58	132.67	132.461
133.322	1.788	Auditory_Same	1	right	1.416	135.11	134.738
140.794	1.789	Visual_Lure	1	left	0.633	142.583	141.427
143.235	1.788	Visual_Lure	1	left	0.882	145.023	144.117
145.809	1.789	Visual_Same	1	right	0.872	147.598	146.681
148.4	1.789	Visual_Lure	1	left	0.674	150.189	149.074
150.79	1.789	Visual_Different	1	left	0.591	152.579	151.381
158.246	1.789	Auditory_Lure	1	left	1.112	160.035	159.358
160.921	1.788	Auditory_Lure	1	left	1.476	162.709	162.397
163.311	1.789	Auditory_Different	1	left	1.098	165.1	164.409
165.752	1.788	Auditory_Same	1	right	0.92	167.54	166.672
168.343	1.788	Auditory_Lure	1	left	1.068	170.131	169.411
175.782	1.788	Visual_Lure	1	left	0.854	177.57	176.636
178.373	1.788	Visual_Lure	1	left	1.14	180.161	179.513
180.914	1.788	Visual_Same	0	left	1.078	182.702	181.992
183.204	1.788	Visual_Different	1	left	0.781	184.992	183.985
185.795	1.789	Visual_Different	1	left	0.756	187.584	186.551
188.169	1.788	Visual_Lure	1	left	1.11	189.957	189.279
195.741	1.789	Auditory_Same	1	right	1.182	197.53	196.923
198.433	1.788	Auditory_Same	1	right	1.136	200.221	199.569
200.706	1.789	Auditory_Different	1	left	1.026	202.495	201.732
203.347	1.789	Auditory_Lure	0	right	1.498	205.136	204.845
205.788	1.788	Auditory_Lure	1	left	1.024	207.576	206.812
208.228	1.789	Auditory_Same	1	right	1.257	210.017	209.485
215.885	1.788	Visual_Same	1	right	0.732	217.673	216.617
218.425	1.789	Visual_Different	1	left	0.646	220.214	219.071
220.766	1.788	Visual_Same	1	right	0.998	222.554	221.764
223.407	1.789	Visual_Lure	1	left	0.759	225.196	224.166
225.781	1.788	Visual_Lure	1	left	0.753	227.569	226.534
228.171	1.789	Visual_Different	1	left	0.678	229.96	228.849
230.712	1.789	Visual_Different	1	left	0.63	232.501	231.342
238.385	1.789	Auditory_Same	1	right	1.146	240.174	239.531
240.826	1.788	Auditory_Different	1	left	0.775	242.614	241.601
243.216	1.789	Auditory_Same	1	right	1.096	245.005	244.312
245.757	1.789	Auditory_Lure	1	left	1.076	247.546	246.833
248.381	1.789	Auditory_Lure	1	left	0.952	250.17	249.333
250.822	1.789	Auditory_Different	1	left	0.867	252.611	251.689
253.263	1.788	Auditory_Different	1	left	1.128	255.051	254.391
260.885	1.789	Visual_Different	1	left	0.577	262.674	261.462
263.276	1.789	Visual_Different	1	left	0.663	265.065	263.939
265.817	1.788	Visual_Lure	1	left	0.989	267.605	266.806
268.358	1.772	Visual_Same	1	right	0.569	270.13	268.927
270.681	1.789	Visual_Same	1	right	0.808	272.47	271.489
273.373	1.788	Visual_Different	1	left	0.558	275.161	273.931
280.795	1.772	Auditory_Same	1	right	1.054	282.567	281.849
283.219	1.788	Auditory_Lure	0	right	1.116	285.007	284.335
285.91	1.789	Auditory_Same	1	right	1.256	287.699	287.166
288.351	1.788	Auditory_Different	1	left	0.748	290.139	289.099
290.892	1.788	Auditory_Different	1	left	0.862	292.68	291.754
293.215	1.789	Auditory_Lure	0	right	1.116	295.004	294.331
300.838	1.789	Visual_Different	1	left	0.575	302.627	301.413
303.228	1.789	Visual_Different	1	left	0.758	305.017	303.986
305.87	1.771	Visual_Same	1	right	0.637	307.641	306.507
308.243	1.789	Visual_Lure	1	left	0.754	310.032	308.997
310.885	1.788	Visual_Different	1	left	0.484	312.673	311.369
318.24	1.788	Auditory_Different	1	left	1.076	320.028	319.316
320.831	1.789	Auditory_Same	1	right	1.158	322.62	321.989
323.355	1.789	Auditory_Lure	1	left	0.922	325.144	324.277
325.796	1.788	Auditory_Same	1	right	0.961	327.584	326.757
328.236	1.789	Auditory_Same	1	right	1.066	330.025	329.302
330.877	1.789	Auditory_Lure	1	left	0.956	332.666	331.833
333.168	1.772	Auditory_Lure	1	left	1.038	334.94	334.206
340.841	1.788	Visual_Same	1	right	0.732	342.629	341.573
343.432	1.772	Visual_Same	1	right	0.855	345.204	344.287
345.855	1.789	Visual_Different	1	left	0.651	347.644	346.506
348.196	1.788	Visual_Same	1	right	1.261	349.984	349.457
350.737	1.788	Visual_Lure	1	left	0.652	352.525	351.389
358.293	1.772	Auditory_Lure	1	left	1.039	360.065	359.332
360.716	1.789	Auditory_Different	1	left	1.193	362.505	361.909
363.307	1.789	Auditory_Lure	1	left	0.996	365.096	364.303
365.848	1.789	Auditory_Same	1	right	0.925	367.637	366.773
368.389	1.789	Auditory_Same	1	right	0.798	370.178	369.187
370.78	1.772	Auditory_Different	1	left	1.109	372.552	371.889
378.436	1.789	Visual_Same	1	right	0.873	380.225	379.309
380.826	1.789	Visual_Lure	1	left	0.54	382.615	381.366
383.217	1.772	Visual_Same	1	right	0.936	384.989	384.153
385.841	1.789	Visual_Different	1	left	0.551	387.63	386.392
388.232	1.788	Visual_Different	1	left	0.57	390.02	388.802
390.773	1.788	Visual_Lure	1	left	0.77	392.561	391.543
398.228	1.789	Auditory_Different	1	left	1.174	400.017	399.402
400.769	1.789	Auditory_Different	1	left	0.953	402.558	401.722
403.36	1.789	Auditory_Lure	1	left	1.199	405.149	404.559
405.901	1.789	Auditory_Different	1	left	0.941	407.69	406.842
408.325	1.789	Auditory_Same	1	right	0.944	410.114	409.269
415.881	1.789	Visual_Different	1	left	0.895	417.67	416.776
418.422	1.788	Visual_Lure	1	left	0.694	420.21	419.116
420.762	1.789	Visual_Different	1	left	0.609	422.551	421.371
423.186	1.789	Visual_Same	1	right	0.587	424.975	423.773
425.727	1.789	Visual_Same	1	right	0.866	427.516	426.593
428.168	1.788	Visual_Lure	1	left	0.505	429.956	428.673
430.859	1.789	Visual_Lure	1	left	0.636	432.648	431.495
438.331	1.789	Auditory_Different	1	left	1.083	440.12	439.414
440.722	1.788	Auditory_Different	1	left	0.974	442.51	441.696
443.413	1.789	Auditory_Same	1	right	0.919	445.202	444.332
445.737	1.788	Auditory_Lure	1	left	0.905	447.525	446.642
448.378	1.788	Auditory_Different	1	left	0.915	450.166	449.293
455.884	1.788	Visual_Same	1	right	0.686	457.672	456.57
458.324	1.789	Visual_Same	1	right	0.606	460.113	458.93
460.765	1.772	Visual_Lure	1	left	0.67	462.537	461.435
463.189	1.788	Visual_Different	1	left	0.667	464.977	463.856
465.83	1.789	Visual_Same	1	right	0.566	467.619	466.396
473.336	1.788	Auditory_Different	1	left	0.975	475.124	474.311
475.726	1.789	Auditory_Same	1	right	0.883	477.515	476.609
478.25	1.789	Auditory_Different	1	left	0.923	480.039	479.173
480.841	1.789	Auditory_Lure	1	left	1.024	482.63	481.865
483.232	1.788	Auditory_Lure	1	left	1.374	485.02	484.606
485.672	1.789	Auditory_Same	1	right	0.838	487.461	486.51
493.429	1.788	Visual_Same	1	right	0.732	495.217	494.161
495.819	1.789	Visual_Same	1	right	0.7	497.608	496.519
498.36	1.789	Visual_Different	1	left	0.537	500.149	498.897
500.7	1.772	Visual_Lure	1	left	0.432	502.472	501.132
503.375	1.789	Visual_Lure	1	left	0.61	505.164	503.985
505.766	1.788	Visual_Same	1	right	0.796	507.554	506.562
513.338	1.789	Auditory_Same	1	right	1.086	515.127	514.424
515.913	1.788	Auditory_Lure	1	left	0.91	517.701	516.823
518.353	1.789	Auditory_Different	1	left	0.921	520.142	519.274
520.744	1.788	Auditory_Lure	1	left	1.086	522.532	521.83
523.335	1.788	Auditory_Lure	1	left	1.196	525.123	524.531
525.658	1.789	Auditory_Different	1	left	0.773	527.447	526.431
528.249	1.789	Auditory_Different	1	left	0.828	530.038	529.077
535.772	1.788	Visual_Lure	1	left	0.697	537.56	536.469
538.363	1.788	Visual_Different	1	left	0.625	540.151	538.988
540.904	1.788	Visual_Lure	1	left	0.722	542.692	541.626
543.294	1.789	Visual_Same	1	right	0.689	545.083	543.983
545.685	1.788	Visual_Same	1	right	0.68	547.473	546.365
548.209	1.788	Visual_Different	1	left	0.644	549.997	548.853
555.932	1.789	Auditory_Lure	1	left	1.018	557.721	556.95
558.272	1.789	Auditory_Different	1	left	0.906	560.061	559.178
560.796	1.789	Auditory_Same	1	right	0.932	562.585	561.728
563.387	1.789	Auditory_Different	1	left	1.011	565.176	564.398
565.828	1.789	Auditory_Different	1	left	0.873	567.617	566.701
568.168	1.789	Auditory_Same	1	right	1.098	569.957	569.266
570.81	1.788	Auditory_Same	1	right	0.95	572.598	571.76
578.332	1.789	Visual_Different	1	left	0.716	580.121	579.048
580.722	1.789	Visual_Different	1	left	0.785	582.511	581.507
583.397	1.789	Visual_Lure	1	left	0.803	585.186	584.2
585.838	1.788	Visual_Different	1	left	0.598	587.626	586.436
588.228	1.789	Visual_Same	1	right	0.535	590.017	588.763
595.834	1.789	Auditory_Same	1	right	1.115	597.623	596.949
598.425	1.789	Auditory_Same	1	right	1.001	600.214	599.426
600.699	1.788	Auditory_Lure	1	left	1.047	602.487	601.746
603.24	1.788	Auditory_Different	1	left	0.863	605.028	604.103
605.68	1.789	Auditory_Same	1	right	1.021	607.469	606.701
613.219	1.789	Visual_Different	1	left	0.612	615.008	613.831
615.861	1.788	Visual_Same	1	right	0.655	617.649	616.516
618.301	1.789	Visual_Lure	1	left	0.648	620.09	618.949
620.742	1.788	Visual_Same	1	right	0.584	622.53	621.326
623.383	1.789	Visual_Same	1	right	0.591	625.172	623.974
625.807	1.788	Visual_Lure	1	left	0.581	627.595	626.388
628.348	1.788	Visual_Lure	1	left	0.735	630.136	629.083
635.887	1.772	Auditory_Different	1	left	1.029	637.659	636.916
638.411	1.789	Auditory_Different	1	left	0.868	640.2	639.279
640.751	1.789	Auditory_Lure	1	left	1.542	642.54	642.293
643.292	1.789	Auditory_Same	1	right	0.835	645.081	644.127
645.883	1.789	Auditory_Same	1	right	0.85	647.672	646.733
648.257	1.789	Auditory_Different	1	left	1.063	650.046	649.32
655.78	1.788	Visual_Lure	1	left	0.583	657.568	656.363
658.32	1.789	Visual_Lure	1	left	0.61	660.109	658.93
660.694	1.789	Visual_Different	1	left	0.763	662.483	661.457
663.386	1.788	Visual_Same	1	right	0.592	665.174	663.978
665.826	1.789	Visual_Lure	1	left	0.684	667.615	666.51
673.382	1.789	Auditory_Lure	1	left	1.11	675.171	674.492
675.756	1.788	Auditory_Lure	1	left	0.899	677.544	676.655
678.196	1.789	Auditory_Same	1	right	0.799	679.985	678.995
680.888	1.788	Auditory_Different	1	left	0.874	682.676	681.762
683.278	1.789	Auditory_Different	1	left	0.897	685.067	684.175
685.719	1.788	Auditory_Lure	1	left	1.03	687.507	686.749
693.225	1.788	Visual_Different	1	left	0.579	695.013	693.804
695.816	1.788	Visual_Same	1	right	0.63	697.604	696.446
698.256	1.789	Visual_Different	1	left	0.544	700.045	698.8
700.831	1.788	Visual_Lure	1	left	0.529	702.619	701.36
703.371	1.789	Visual_Lure	1	left	0.533	705.16	703.904
705.762	1.789	Visual_Same	1	right	0.67	707.551	706.432
713.385	1.772	Auditory_Lure	0	right	0.937	715.157	714.322
715.708	1.789	Auditory_Lure	1	left	1.354	717.497	717.062
718.249	1.789	Auditory_Same	1	right	1.08	720.038	719.329
720.84	1.789	Auditory_Lure	0	right	1.005	722.629	721.845
723.18	1.789	Auditory_Different	1	left	0.908	724.969	724.088
