"onset"	"trial_type"	"accuracy"	"button"	"response_time"	"duration"	"trial_type_less_granular"	"time_to_offset_alternative_onset"	"time_to_RT_alternative_onset_or_duration"
10.356	"recently_learned_faces_baseline"	0	NA	NA	0.1	"recently_learned_faces_baseline"	10.44	NA
11.342	"recently_learned_faces_baseline"	0	"left"	2.073	2.508	"recently_learned_faces_baseline"	13.828	13.415
14.886	"famous_faces_baseline"	0	"right"	1.01	2.507	"famous_faces_baseline"	17.367	15.896
18.263	"famous_faces_baseline"	1	"right"	1.16	2.507	"famous_faces_baseline"	20.754	19.423
21.706	"famous_faces_false_combination"	0	NA	NA	2.508	"famous_faces"	24.192	NA
25.3	"famous_faces_correct_combination"	1	"left"	1.174	2.508	"famous_faces"	27.781	26.474
28.677	"recently_learned_faces_false_combination"	0	"left"	1.5	2.508	"recently_learned_faces"	31.169	30.177
32.372	"recently_learned_faces_false_combination"	1	"right"	1.43	2.507	"recently_learned_faces"	34.858	33.802
35.715	"famous_faces_false_combination"	0	NA	NA	2.508	"famous_faces"	38.195	NA
39.292	"famous_faces_baseline"	0	"right"	1.029	2.508	"famous_faces_baseline"	41.784	40.321
42.836	"recently_learned_faces_baseline"	1	"left"	1.059	2.508	"recently_learned_faces_baseline"	45.322	43.895
46.13	"famous_faces_false_combination"	0	NA	NA	2.507	"famous_faces"	48.609	NA
49.757	"famous_faces_baseline"	1	"right"	1.235	2.508	"famous_faces_baseline"	52.248	50.992
55.407	"famous_faces_baseline"	1	"right"	1.504	2.508	"famous_faces_baseline"	57.889	56.911
58.935	"recently_learned_faces_correct_combination"	1	"left"	1.383	2.507	"recently_learned_faces"	61.427	60.318
62.328	"recently_learned_faces_false_combination"	1	"right"	1.362	2.508	"recently_learned_faces"	64.815	63.69
65.722	"famous_faces_correct_combination"	0	NA	NA	2.507	"famous_faces"	68.203	NA
69.249	"famous_faces_false_combination"	0	"left"	0.791	2.507	"famous_faces"	71.741	70.04
72.692	"recently_learned_faces_false_combination"	0	NA	NA	2.508	"recently_learned_faces"	75.179	NA
76.287	"famous_faces_false_combination"	1	"right"	1.535	2.507	"famous_faces"	78.768	77.822
79.713	"recently_learned_faces_false_combination"	1	"right"	1.423	2.508	"recently_learned_faces"	82.206	81.136
83.358	"recently_learned_faces_false_combination"	1	"right"	1.087	2.507	"recently_learned_faces"	85.845	84.445
86.801	"famous_faces_baseline"	1	"right"	1.817	2.508	"famous_faces_baseline"	89.283	88.618
90.178	"famous_faces_baseline"	1	"right"	1.819	2.508	"famous_faces_baseline"	92.67	91.997
93.622	"famous_faces_false_combination"	1	"right"	1.832	2.507	"famous_faces"	96.108	95.454
97.266	"recently_learned_faces_false_combination"	0	"left"	1.485	2.507	"recently_learned_faces"	99.747	98.751
102.95	"recently_learned_faces_correct_combination"	1	"left"	1.04	2.507	"recently_learned_faces"	105.438	103.99
106.343	"famous_faces_correct_combination"	1	"left"	1.868	2.508	"famous_faces"	108.826	108.211
109.72	"recently_learned_faces_correct_combination"	1	"left"	0.765	2.507	"recently_learned_faces"	112.214	110.485
113.264	"recently_learned_faces_false_combination"	1	"right"	1.63	2.507	"recently_learned_faces"	115.752	114.894
116.858	"recently_learned_faces_correct_combination"	1	"left"	1.074	2.508	"recently_learned_faces"	119.341	117.932
120.385	"famous_faces_correct_combination"	1	"left"	1.818	2.508	"famous_faces"	122.879	122.203
123.678	"famous_faces_correct_combination"	1	"left"	1.05	2.508	"famous_faces"	126.166	124.728
127.222	"recently_learned_faces_correct_combination"	1	"left"	0.975	2.508	"recently_learned_faces"	129.704	128.197
130.8	"famous_faces_baseline"	1	"left"	1.151	2.507	"famous_faces_baseline"	133.293	131.951
134.243	"recently_learned_faces_baseline"	1	"right"	0.981	2.508	"recently_learned_faces_baseline"	136.731	135.224
137.687	"famous_faces_baseline"	1	"left"	1.756	2.508	"famous_faces_baseline"	140.169	139.443
141.264	"famous_faces_correct_combination"	1	"left"	1.196	2.508	"famous_faces"	143.758	142.46
144.808	"recently_learned_faces_correct_combination"	1	"left"	1.162	2.508	"recently_learned_faces"	147.296	145.97
150.408	"famous_faces_baseline"	1	"right"	0.933	2.508	"famous_faces_baseline"	152.888	151.341
153.785	"famous_faces_correct_combination"	1	"left"	1.301	2.508	"famous_faces"	156.275	155.086
157.429	"famous_faces_baseline"	1	"right"	0.986	2.508	"famous_faces_baseline"	159.914	158.415
160.723	"recently_learned_faces_correct_combination"	1	"left"	0.777	2.507	"recently_learned_faces"	163.201	161.5
164.3	"recently_learned_faces_baseline"	1	"left"	0.642	2.508	"recently_learned_faces_baseline"	166.79	164.942
167.894	"recently_learned_faces_correct_combination"	1	"left"	0.733	2.508	"recently_learned_faces"	170.379	168.627
171.187	"recently_learned_faces_correct_combination"	1	"left"	1.01	2.508	"recently_learned_faces"	173.666	172.197
174.765	"recently_learned_faces_correct_combination"	1	"left"	0.899	2.507	"recently_learned_faces"	177.255	175.664
178.309	"famous_faces_false_combination"	1	"right"	1.048	2.507	"famous_faces"	180.794	179.357
181.702	"recently_learned_faces_baseline"	1	"left"	0.981	2.508	"recently_learned_faces_baseline"	184.181	182.683
185.129	"famous_faces_false_combination"	1	"right"	0.994	2.508	"famous_faces"	187.619	186.123
188.773	"famous_faces_false_combination"	1	"right"	1.001	2.508	"famous_faces"	191.258	189.774
192.217	"famous_faces_baseline"	1	"right"	0.943	2.507	"famous_faces_baseline"	194.696	193.16
197.901	"recently_learned_faces_false_combination"	1	"right"	1.04	2.507	"recently_learned_faces"	200.387	198.941
201.244	"famous_faces_false_combination"	1	"right"	1.104	2.508	"famous_faces"	203.724	202.348
204.821	"recently_learned_faces_correct_combination"	1	"left"	2.04	2.508	"recently_learned_faces"	207.313	206.861
208.415	"famous_faces_false_combination"	1	"right"	1.038	2.508	"famous_faces"	210.902	209.453
211.759	"famous_faces_baseline"	1	"left"	0.841	2.507	"famous_faces_baseline"	214.239	212.6
215.336	"recently_learned_faces_false_combination"	0	NA	NA	2.508	"recently_learned_faces"	217.828	NA
218.68	"recently_learned_faces_false_combination"	1	"right"	2.169	2.507	"recently_learned_faces"	221.165	220.849
222.274	"famous_faces_correct_combination"	1	"left"	1.041	2.507	"famous_faces"	224.754	223.315
225.701	"recently_learned_faces_baseline"	1	"right"	1.332	2.507	"recently_learned_faces_baseline"	228.192	227.033
229.345	"famous_faces_baseline"	1	"right"	0.698	2.507	"famous_faces_baseline"	231.831	230.043
232.688	"recently_learned_faces_baseline"	1	"left"	0.864	2.508	"recently_learned_faces_baseline"	235.168	233.552
236.316	"recently_learned_faces_baseline"	1	"right"	0.878	2.507	"recently_learned_faces_baseline"	238.807	237.194
239.709	"recently_learned_faces_false_combination"	1	"right"	1.379	2.508	"recently_learned_faces"	242.195	241.088
245.443	"recently_learned_faces_baseline"	1	"right"	0.923	2.524	"recently_learned_faces_baseline"	247.936	246.366
248.837	"famous_faces_correct_combination"	1	"left"	1.012	2.507	"famous_faces"	251.324	249.849
252.28	"famous_faces_correct_combination"	1	"left"	0.844	2.508	"famous_faces"	254.762	253.124
255.858	"famous_faces_baseline"	1	"right"	0.676	2.524	"famous_faces_baseline"	258.351	256.534
259.201	"recently_learned_faces_correct_combination"	1	"left"	1.017	2.507	"recently_learned_faces"	261.688	260.218
262.845	"recently_learned_faces_correct_combination"	1	"left"	1.049	2.508	"recently_learned_faces"	265.327	263.894
266.272	"famous_faces_correct_combination"	0	"right"	0.808	2.508	"famous_faces"	268.765	267.08
269.666	"famous_faces_false_combination"	1	"right"	1.455	2.507	"famous_faces"	272.153	271.121
273.36	"famous_faces_correct_combination"	1	"left"	0.98	2.507	"famous_faces"	275.842	274.34
276.687	"famous_faces_baseline"	1	"left"	1.066	2.507	"famous_faces_baseline"	279.179	277.753
280.331	"recently_learned_faces_correct_combination"	1	"left"	1.552	2.507	"recently_learned_faces"	282.818	281.883
283.724	"famous_faces_false_combination"	1	"right"	1.066	2.508	"famous_faces"	286.206	284.79
287.101	"recently_learned_faces_correct_combination"	0	"right"	1.496	2.508	"recently_learned_faces"	289.594	288.597
292.852	"recently_learned_faces_correct_combination"	1	"left"	1.748	2.507	"recently_learned_faces"	295.336	294.6
296.446	"famous_faces_false_combination"	1	"right"	1.095	2.507	"famous_faces"	298.925	297.541
299.873	"famous_faces_false_combination"	1	"right"	1.08	2.507	"famous_faces"	302.363	300.953
303.216	"recently_learned_faces_baseline"	1	"right"	0.918	2.508	"recently_learned_faces_baseline"	305.7	304.134
306.76	"famous_faces_correct_combination"	1	"left"	0.999	2.507	"famous_faces"	309.238	307.759
310.187	"recently_learned_faces_baseline"	1	"left"	0.676	2.507	"recently_learned_faces_baseline"	312.676	310.863
313.781	"famous_faces_correct_combination"	1	"left"	0.713	2.508	"famous_faces"	316.265	314.494
317.375	"recently_learned_faces_correct_combination"	1	"left"	1.456	2.508	"recently_learned_faces"	319.854	318.831
320.702	"recently_learned_faces_false_combination"	1	"right"	1.125	2.507	"recently_learned_faces"	323.191	321.827
324.296	"recently_learned_faces_false_combination"	0	"left"	0.846	2.507	"recently_learned_faces"	326.78	325.142
327.622	"recently_learned_faces_correct_combination"	1	"left"	1.844	2.525	"recently_learned_faces"	330.117	329.466
331.166	"recently_learned_faces_baseline"	1	"right"	1.049	2.508	"recently_learned_faces_baseline"	333.655	332.215
334.76	"famous_faces_correct_combination"	1	"left"	1.257	2.508	"famous_faces"	337.244	336.017
340.394	"recently_learned_faces_baseline"	1	"left"	0.891	2.508	"recently_learned_faces_baseline"	342.885	341.285
343.938	"recently_learned_faces_baseline"	1	"right"	1.114	2.507	"recently_learned_faces_baseline"	346.423	345.052
347.331	"famous_faces_false_combination"	1	"right"	1.053	2.508	"famous_faces"	349.811	348.384
350.758	"recently_learned_faces_correct_combination"	1	"left"	1.084	2.508	"recently_learned_faces"	353.249	351.842
354.202	"famous_faces_false_combination"	1	"right"	1.033	2.508	"famous_faces"	356.687	355.235
357.746	"recently_learned_faces_baseline"	1	"right"	1.023	2.507	"recently_learned_faces_baseline"	360.225	358.769
361.273	"recently_learned_faces_baseline"	0	"right"	0.831	2.508	"recently_learned_faces_baseline"	363.764	362.104
364.817	"recently_learned_faces_false_combination"	1	"right"	1.436	2.508	"recently_learned_faces"	367.303	366.253
368.361	"famous_faces_false_combination"	1	"right"	0.919	2.508	"famous_faces"	370.841	369.28
371.638	"famous_faces_correct_combination"	1	"left"	1.092	2.507	"famous_faces"	374.128	372.73
375.182	"famous_faces_false_combination"	1	"right"	0.945	2.507	"famous_faces"	377.666	376.127
378.725	"recently_learned_faces_baseline"	0	"left"	0.791	2.508	"recently_learned_faces_baseline"	381.205	379.516
382.102	"recently_learned_faces_false_combination"	0	"left"	1.211	2.508	"recently_learned_faces"	384.593	383.313
387.953	"recently_learned_faces_baseline"	1	"left"	1.018	2.508	"recently_learned_faces_baseline"	390.435	388.971
391.23	"famous_faces_false_combination"	1	"right"	0.916	2.507	"famous_faces"	393.722	392.146
394.874	"famous_faces_correct_combination"	1	"left"	1.279	2.507	"famous_faces"	397.361	396.153
398.267	"recently_learned_faces_baseline"	1	"right"	0.889	2.508	"recently_learned_faces_baseline"	400.748	399.156
401.795	"recently_learned_faces_correct_combination"	1	"left"	2.375	2.507	"recently_learned_faces"	404.287	404.17
405.389	"famous_faces_correct_combination"	1	"left"	1.044	2.507	"famous_faces"	407.876	406.433
408.682	"recently_learned_faces_false_combination"	0	"left"	1.346	2.507	"recently_learned_faces"	411.163	410.028
412.209	"famous_faces_correct_combination"	1	"left"	0.907	2.508	"famous_faces"	414.701	413.116
415.803	"famous_faces_false_combination"	1	"right"	1.017	2.508	"famous_faces"	418.29	416.82
419.247	"famous_faces_baseline"	1	"right"	1.41	2.507	"famous_faces_baseline"	421.728	420.657
422.824	"famous_faces_correct_combination"	1	"left"	1.114	2.508	"famous_faces"	425.317	423.938
426.117	"famous_faces_baseline"	1	"right"	0.821	2.508	"famous_faces_baseline"	428.604	426.938
429.711	"famous_faces_baseline"	1	"left"	0.954	2.508	"famous_faces_baseline"	432.193	430.665
435.245	"recently_learned_faces_baseline"	1	"left"	0.744	2.507	"recently_learned_faces_baseline"	437.733	435.989
438.889	"recently_learned_faces_false_combination"	0	"left"	1.074	2.507	"recently_learned_faces"	441.372	439.963
442.266	"recently_learned_faces_correct_combination"	1	"left"	1.576	2.507	"recently_learned_faces"	444.759	443.842
445.91	"recently_learned_faces_baseline"	1	"left"	1.671	2.507	"recently_learned_faces_baseline"	448.398	447.581
449.303	"recently_learned_faces_false_combination"	0	NA	NA	2.508	"recently_learned_faces"	451.786	NA
452.73	"recently_learned_faces_baseline"	1	"left"	0.964	2.525	"recently_learned_faces_baseline"	455.224	453.694
456.375	"recently_learned_faces_baseline"	1	"left"	0.76	2.507	"recently_learned_faces_baseline"	458.863	457.135
459.768	"famous_faces_baseline"	1	"left"	0.79	2.508	"famous_faces_baseline"	462.251	460.558
463.312	"famous_faces_correct_combination"	1	"left"	1.116	2.508	"famous_faces"	465.79	464.428
466.639	"famous_faces_baseline"	1	"right"	0.952	2.507	"famous_faces_baseline"	469.127	467.591
470.333	"famous_faces_false_combination"	1	"right"	1.712	2.508	"famous_faces"	472.816	472.045
473.66	"famous_faces_false_combination"	1	"right"	0.992	2.507	"famous_faces"	476.153	474.652
477.204	"recently_learned_faces_baseline"	1	"left"	0.746	2.507	"recently_learned_faces_baseline"	479.692	477.95
482.854	"famous_faces_baseline"	1	"right"	0.965	2.507	"famous_faces_baseline"	485.333	483.819
486.381	"recently_learned_faces_correct_combination"	1	"left"	1.482	2.508	"recently_learned_faces"	488.872	487.863
489.724	"recently_learned_faces_baseline"	1	"left"	0.949	2.508	"recently_learned_faces_baseline"	492.209	490.673
493.268	"recently_learned_faces_correct_combination"	1	"left"	1.122	2.508	"recently_learned_faces"	495.747	494.39
496.896	"famous_faces_baseline"	1	"left"	0.864	2.508	"famous_faces_baseline"	499.386	497.76
500.34	"recently_learned_faces_false_combination"	1	"right"	0.983	2.507	"recently_learned_faces"	502.824	501.323
503.716	"famous_faces_false_combination"	1	"right"	1.099	2.525	"famous_faces"	506.211	504.815
507.361	"recently_learned_faces_baseline"	1	"left"	0.997	2.507	"recently_learned_faces_baseline"	509.85	508.358
510.754	"famous_faces_baseline"	1	"right"	0.974	2.508	"famous_faces_baseline"	513.238	511.728
514.148	"recently_learned_faces_false_combination"	1	"right"	1.363	2.507	"recently_learned_faces"	516.626	515.511
517.825	"famous_faces_baseline"	1	"left"	0.804	2.508	"famous_faces_baseline"	520.315	518.629
521.169	"famous_faces_false_combination"	0	"left"	0.777	2.507	"famous_faces"	523.652	521.946
524.763	"recently_learned_faces_false_combination"	1	"right"	1.528	2.507	"recently_learned_faces"	527.241	526.291
530.246	"famous_faces_correct_combination"	1	"left"	0.915	2.507	"famous_faces"	532.732	531.161
533.89	"recently_learned_faces_false_combination"	0	"left"	2.077	2.508	"recently_learned_faces"	536.371	535.967
537.267	"recently_learned_faces_baseline"	1	"right"	1.089	2.507	"recently_learned_faces_baseline"	539.758	538.356
540.811	"recently_learned_faces_correct_combination"	0	"right"	1.294	2.507	"recently_learned_faces"	543.297	542.105
544.405	"famous_faces_correct_combination"	1	"left"	1.42	2.507	"famous_faces"	546.886	545.825
547.731	"famous_faces_correct_combination"	1	"left"	0.798	2.508	"famous_faces"	550.223	548.529
551.376	"recently_learned_faces_false_combination"	1	"right"	1.147	2.507	"recently_learned_faces"	553.862	552.523
554.669	"famous_faces_baseline"	1	"left"	0.939	2.507	"famous_faces_baseline"	557.149	555.608
558.246	"famous_faces_false_combination"	1	"right"	1.019	2.508	"famous_faces"	560.738	559.265
561.79	"famous_faces_false_combination"	1	"right"	0.883	2.508	"famous_faces"	564.277	562.673
565.134	"famous_faces_false_combination"	1	"right"	0.984	2.507	"famous_faces"	567.614	566.118
568.711	"recently_learned_faces_false_combination"	0	NA	NA	2.507	"recently_learned_faces"	571.203	NA
572.155	"recently_learned_faces_false_combination"	0	"left"	1.195	2.507	"recently_learned_faces"	574.641	573.35
577.738	"recently_learned_faces_baseline"	1	"left"	1.045	2.524	"recently_learned_faces_baseline"	580.231	578.783
581.382	"recently_learned_faces_baseline"	1	"right"	1.09	2.508	"recently_learned_faces_baseline"	583.87	582.472
584.776	"recently_learned_faces_false_combination"	1	"right"	2.186	2.507	"recently_learned_faces"	587.257	586.962
588.403	"famous_faces_correct_combination"	1	"left"	0.857	2.525	"famous_faces"	590.896	589.26
591.797	"recently_learned_faces_baseline"	1	"right"	0.886	2.507	"recently_learned_faces_baseline"	594.284	592.683
595.391	"famous_faces_correct_combination"	1	"left"	0.765	2.507	"famous_faces"	597.873	596.156
598.717	"famous_faces_baseline"	1	"left"	0.764	2.508	"famous_faces_baseline"	601.21	599.481
602.161	"recently_learned_faces_false_combination"	1	"right"	1.557	2.508	"recently_learned_faces"	604.648	603.718
605.755	"recently_learned_faces_false_combination"	1	"right"	1.12	2.508	"recently_learned_faces"	608.237	606.875
609.283	"famous_faces_baseline"	1	"right"	1.321	2.524	"famous_faces_baseline"	611.776	610.604
612.826	"famous_faces_baseline"	1	"right"	0.767	2.508	"famous_faces_baseline"	615.314	613.593
616.27	"recently_learned_faces_baseline"	0	"right"	0.716	2.508	"recently_learned_faces_baseline"	618.752	616.986
619.647	"famous_faces_correct_combination"	1	"left"	1.49	2.507	"famous_faces"	622.139	621.137
625.297	"famous_faces_correct_combination"	1	"left"	0.897	2.457	"famous_faces"	627.73	626.194
628.925	"famous_faces_false_combination"	1	"right"	1.114	2.524	"famous_faces"	631.419	630.039
632.318	"famous_faces_correct_combination"	1	"left"	1.069	2.508	"famous_faces"	634.807	633.387
635.862	"famous_faces_false_combination"	1	"right"	0.859	2.508	"famous_faces"	638.346	636.721
639.239	"recently_learned_faces_false_combination"	1	"right"	1.643	2.524	"recently_learned_faces"	641.733	640.882
642.682	"famous_faces_false_combination"	1	"right"	1.06	2.508	"famous_faces"	645.171	643.742
646.226	"famous_faces_false_combination"	1	"right"	1.068	2.508	"famous_faces"	648.709	647.294
649.854	"recently_learned_faces_correct_combination"	1	"left"	1.439	2.524	"recently_learned_faces"	652.348	651.293
653.298	"famous_faces_baseline"	1	"left"	0.984	2.507	"famous_faces_baseline"	655.786	654.282
656.741	"recently_learned_faces_correct_combination"	1	"left"	1.542	2.508	"recently_learned_faces"	659.224	658.283
660.168	"recently_learned_faces_false_combination"	1	"right"	0.971	2.524	"recently_learned_faces"	662.662	661.139
663.712	"famous_faces_baseline"	1	"right"	0.99	2.508	"famous_faces_baseline"	666.201	664.702
667.256	"famous_faces_false_combination"	1	"right"	0.943	2.508	"famous_faces"	669.74	668.199
672.839	"recently_learned_faces_correct_combination"	1	"left"	1.176	2.508	"recently_learned_faces"	675.331	674.015
676.383	"recently_learned_faces_baseline"	1	"left"	1.023	2.508	"recently_learned_faces_baseline"	678.87	677.406
679.927	"recently_learned_faces_correct_combination"	1	"left"	0.952	2.508	"recently_learned_faces"	682.408	680.879
683.254	"famous_faces_false_combination"	1	"right"	1.397	2.507	"famous_faces"	685.745	684.651
686.698	"recently_learned_faces_correct_combination"	1	"left"	1.007	2.507	"recently_learned_faces"	689.183	687.705
690.292	"famous_faces_baseline"	1	"left"	0.722	2.507	"famous_faces_baseline"	692.772	691.014
693.668	"famous_faces_baseline"	1	"left"	0.591	2.508	"famous_faces_baseline"	696.16	694.259
697.313	"famous_faces_correct_combination"	1	"left"	0.68	2.507	"famous_faces"	699.799	697.993
700.857	"recently_learned_faces_false_combination"	0	"left"	1.125	2.507	"recently_learned_faces"	703.337	701.982
704.183	"recently_learned_faces_correct_combination"	1	"left"	0.887	2.508	"recently_learned_faces"	706.674	705.07
707.777	"recently_learned_faces_correct_combination"	0	"right"	2.161	2.508	"recently_learned_faces"	710.263	709.938
711.121	"famous_faces_baseline"	1	"left"	1.013	2.507	"famous_faces_baseline"	713.6	712.134
714.698	"recently_learned_faces_baseline"	1	"right"	1.054	2.508	"recently_learned_faces_baseline"	717.189	715.752
720.449	"famous_faces_false_combination"	1	"right"	1.106	2.507	"famous_faces"	722.93	721.555
723.725	"famous_faces_baseline"	1	"left"	0.71	2.508	"famous_faces_baseline"	726.217	724.435
727.269	"recently_learned_faces_false_combination"	1	"right"	1.065	2.508	"recently_learned_faces"	729.755	728.334
730.813	"famous_faces_correct_combination"	1	"left"	0.725	2.508	"famous_faces"	733.294	731.538
734.34	"recently_learned_faces_correct_combination"	1	"left"	0.959	2.524	"recently_learned_faces"	736.833	735.299
737.734	"recently_learned_faces_correct_combination"	1	"left"	0.794	2.507	"recently_learned_faces"	740.22	738.528
741.328	"famous_faces_correct_combination"	1	"left"	0.774	2.507	"famous_faces"	743.809	742.102
744.755	"recently_learned_faces_correct_combination"	1	"left"	1.06	2.524	"recently_learned_faces"	747.247	745.815
748.349	"recently_learned_faces_false_combination"	0	"left"	1.07	2.507	"recently_learned_faces"	750.836	749.419
751.642	"recently_learned_faces_baseline"	1	"right"	1.077	2.508	"recently_learned_faces_baseline"	754.123	752.719
755.32	"recently_learned_faces_correct_combination"	0	"right"	0.973	2.524	"recently_learned_faces"	757.812	756.293
758.663	"recently_learned_faces_false_combination"	1	"right"	2.236	2.508	"recently_learned_faces"	761.149	760.899
762.107	"recently_learned_faces_correct_combination"	1	"left"	1.149	2.507	"recently_learned_faces"	764.587	763.256
767.74	"recently_learned_faces_baseline"	1	"right"	1.06	2.508	"recently_learned_faces_baseline"	770.228	768.8
771.385	"famous_faces_false_combination"	1	"right"	2.19	2.507	"famous_faces"	773.867	773.575
774.811	"famous_faces_correct_combination"	1	"left"	0.917	2.525	"famous_faces"	777.305	775.728
778.406	"recently_learned_faces_false_combination"	0	"left"	1.313	2.507	"recently_learned_faces"	780.894	779.719
781.749	"famous_faces_baseline"	1	"left"	1.312	2.507	"famous_faces_baseline"	784.231	783.061
785.276	"famous_faces_correct_combination"	1	"left"	0.778	2.524	"famous_faces"	787.77	786.054
788.72	"famous_faces_correct_combination"	1	"left"	0.736	2.507	"famous_faces"	791.208	789.456
792.314	"famous_faces_correct_combination"	1	"left"	0.707	2.507	"famous_faces"	794.797	793.021
