"onset"	"trial_type"	"accuracy"	"button"	"response_time"	"duration"	"trial_type_less_granular"	"time_to_offset_alternative_onset"	"time_to_RT_alternative_onset_or_duration"
10.453	"recently_learned_faces_baseline"	0	NA	NA	0.017	"recently_learned_faces_baseline"	10.453	NA
11.439	"recently_learned_faces_baseline"	0	NA	NA	2.508	"recently_learned_faces_baseline"	13.928	NA
14.833	"famous_faces_baseline"	0	"right"	1.821	2.507	"famous_faces_baseline"	17.316	16.654
18.377	"famous_faces_baseline"	0	"left"	1.592	2.507	"famous_faces_baseline"	20.855	19.969
21.703	"famous_faces_false_combination"	0	NA	NA	2.508	"famous_faces"	24.192	NA
25.398	"famous_faces_correct_combination"	0	"right"	2.048	2.507	"famous_faces"	27.881	27.446
28.674	"recently_learned_faces_false_combination"	1	"right"	1.89	2.524	"recently_learned_faces"	31.168	30.564
32.318	"recently_learned_faces_false_combination"	0	NA	NA	2.508	"recently_learned_faces"	34.807	NA
35.762	"famous_faces_false_combination"	1	"right"	2.053	2.507	"famous_faces"	38.245	37.815
39.189	"famous_faces_baseline"	1	"left"	1.246	2.524	"famous_faces_baseline"	41.683	40.435
42.632	"recently_learned_faces_baseline"	1	"left"	0.801	2.508	"recently_learned_faces_baseline"	45.121	43.433
46.176	"famous_faces_false_combination"	1	"right"	1.665	2.508	"famous_faces"	48.659	47.841
49.704	"famous_faces_baseline"	1	"right"	1.657	2.524	"famous_faces_baseline"	52.198	51.361
55.253	"famous_faces_baseline"	1	"right"	1.362	2.508	"famous_faces_baseline"	57.738	56.615
58.898	"recently_learned_faces_correct_combination"	0	"right"	1.655	2.507	"recently_learned_faces"	61.377	60.553
62.325	"recently_learned_faces_false_combination"	1	"right"	1.588	2.507	"recently_learned_faces"	64.815	63.913
65.768	"famous_faces_correct_combination"	1	"left"	1.654	2.508	"famous_faces"	68.253	67.422
69.412	"famous_faces_false_combination"	1	"right"	1.104	2.508	"famous_faces"	71.892	70.516
72.789	"recently_learned_faces_false_combination"	0	"left"	1.528	2.508	"recently_learned_faces"	75.28	74.317
76.333	"famous_faces_false_combination"	1	"right"	1.723	2.508	"famous_faces"	78.819	78.056
79.877	"recently_learned_faces_false_combination"	1	"right"	1.307	2.508	"recently_learned_faces"	82.357	81.184
83.153	"recently_learned_faces_false_combination"	1	"right"	1.907	2.508	"recently_learned_faces"	85.644	85.06
86.697	"famous_faces_baseline"	1	"right"	1.529	2.508	"famous_faces_baseline"	89.182	88.226
90.291	"famous_faces_baseline"	1	"right"	1.296	2.508	"famous_faces_baseline"	92.771	91.587
93.819	"famous_faces_false_combination"	1	"right"	1.39	2.507	"famous_faces"	96.309	95.209
97.212	"recently_learned_faces_false_combination"	0	"left"	1.902	2.508	"recently_learned_faces"	99.697	99.114
102.896	"recently_learned_faces_correct_combination"	1	"left"	1.085	2.507	"recently_learned_faces"	105.388	103.981
106.44	"famous_faces_correct_combination"	1	"left"	1.777	2.507	"famous_faces"	108.926	108.217
109.783	"recently_learned_faces_correct_combination"	1	"left"	0.94	2.507	"recently_learned_faces"	112.263	110.723
113.21	"recently_learned_faces_false_combination"	0	"left"	1.004	2.507	"recently_learned_faces"	115.701	114.214
116.804	"recently_learned_faces_correct_combination"	1	"left"	0.766	2.507	"recently_learned_faces"	119.29	117.57
120.348	"famous_faces_correct_combination"	1	"left"	0.885	2.507	"famous_faces"	122.829	121.233
123.725	"famous_faces_correct_combination"	1	"left"	0.943	2.507	"famous_faces"	126.216	124.668
127.369	"recently_learned_faces_correct_combination"	1	"left"	0.873	2.507	"recently_learned_faces"	129.855	128.242
130.662	"famous_faces_baseline"	1	"left"	1.016	2.507	"famous_faces_baseline"	133.142	131.678
134.239	"recently_learned_faces_baseline"	1	"right"	1.401	2.508	"recently_learned_faces_baseline"	136.731	135.64
137.633	"famous_faces_baseline"	1	"left"	1.472	2.507	"famous_faces_baseline"	140.119	139.105
141.177	"famous_faces_correct_combination"	1	"left"	0.964	2.507	"famous_faces"	143.657	142.141
144.704	"recently_learned_faces_correct_combination"	1	"left"	1.481	2.507	"recently_learned_faces"	147.196	146.185
150.354	"famous_faces_baseline"	1	"right"	1.504	2.508	"famous_faces_baseline"	152.837	151.858
153.931	"famous_faces_correct_combination"	1	"left"	1.731	2.525	"famous_faces"	156.426	155.662
157.225	"famous_faces_baseline"	1	"right"	1.616	2.507	"famous_faces_baseline"	159.713	158.841
160.869	"recently_learned_faces_correct_combination"	1	"left"	0.827	2.507	"recently_learned_faces"	163.352	161.696
164.246	"recently_learned_faces_baseline"	1	"left"	0.759	2.507	"recently_learned_faces_baseline"	166.739	165.005
167.689	"recently_learned_faces_correct_combination"	1	"left"	0.794	2.508	"recently_learned_faces"	170.177	168.483
171.233	"recently_learned_faces_correct_combination"	1	"left"	1.03	2.508	"recently_learned_faces"	173.715	172.263
174.861	"recently_learned_faces_correct_combination"	1	"left"	1.482	2.524	"recently_learned_faces"	177.354	176.343
178.254	"famous_faces_false_combination"	1	"right"	1.48	2.508	"famous_faces"	180.742	179.734
181.798	"recently_learned_faces_baseline"	1	"left"	1.037	2.507	"recently_learned_faces_baseline"	184.281	182.835
185.175	"famous_faces_false_combination"	1	"right"	1.198	2.507	"famous_faces"	187.668	186.373
188.819	"famous_faces_false_combination"	1	"right"	1.184	2.507	"famous_faces"	191.307	190.003
192.112	"famous_faces_baseline"	1	"right"	1.222	2.508	"famous_faces_baseline"	194.594	193.334
197.746	"recently_learned_faces_false_combination"	0	"left"	1.423	2.507	"recently_learned_faces"	200.235	199.169
201.44	"famous_faces_false_combination"	1	"right"	1.177	2.507	"famous_faces"	203.924	202.617
204.884	"recently_learned_faces_correct_combination"	1	"left"	1.298	2.507	"recently_learned_faces"	207.362	206.182
208.31	"famous_faces_false_combination"	1	"right"	1.056	2.508	"famous_faces"	210.8	209.366
211.754	"famous_faces_baseline"	1	"left"	1.101	2.508	"famous_faces_baseline"	214.238	212.855
215.398	"recently_learned_faces_false_combination"	0	"left"	0.797	2.508	"recently_learned_faces"	217.877	216.195
218.725	"recently_learned_faces_false_combination"	0	"left"	0.786	2.507	"recently_learned_faces"	221.214	219.511
222.169	"famous_faces_correct_combination"	1	"left"	0.865	2.507	"famous_faces"	224.652	223.034
225.763	"recently_learned_faces_baseline"	1	"right"	1.387	2.507	"recently_learned_faces_baseline"	228.241	227.15
229.29	"famous_faces_baseline"	1	"right"	1.031	2.507	"famous_faces_baseline"	231.78	230.321
232.683	"recently_learned_faces_baseline"	1	"left"	1.417	2.508	"recently_learned_faces_baseline"	235.167	234.1
236.127	"recently_learned_faces_baseline"	1	"right"	1.167	2.507	"recently_learned_faces_baseline"	238.605	237.294
239.704	"recently_learned_faces_false_combination"	1	"right"	1.899	2.508	"recently_learned_faces"	242.194	241.603
245.455	"recently_learned_faces_baseline"	1	"right"	0.906	2.507	"recently_learned_faces_baseline"	247.935	246.361
248.781	"famous_faces_correct_combination"	1	"left"	1.042	2.508	"famous_faces"	251.272	249.823
252.375	"famous_faces_correct_combination"	1	"left"	0.909	2.508	"famous_faces"	254.861	253.284
255.819	"famous_faces_baseline"	1	"right"	0.815	2.507	"famous_faces_baseline"	258.299	256.634
259.196	"recently_learned_faces_correct_combination"	1	"left"	0.995	2.507	"recently_learned_faces"	261.687	260.191
262.84	"recently_learned_faces_correct_combination"	1	"left"	1.977	2.507	"recently_learned_faces"	265.326	264.817
266.183	"famous_faces_correct_combination"	1	"left"	0.899	2.508	"famous_faces"	268.663	267.082
269.71	"famous_faces_false_combination"	1	"right"	1.392	2.508	"famous_faces"	272.201	271.102
273.355	"famous_faces_correct_combination"	1	"left"	0.738	2.507	"famous_faces"	275.84	274.093
276.748	"famous_faces_baseline"	0	"right"	0.972	2.508	"famous_faces_baseline"	279.228	277.72
280.175	"recently_learned_faces_correct_combination"	1	"left"	0.803	2.507	"recently_learned_faces"	282.666	280.978
283.819	"famous_faces_false_combination"	1	"right"	1.159	2.508	"famous_faces"	286.305	284.978
287.263	"recently_learned_faces_correct_combination"	1	"left"	1.373	2.507	"recently_learned_faces"	289.743	288.636
292.896	"recently_learned_faces_correct_combination"	1	"left"	1.182	2.508	"recently_learned_faces"	295.384	294.078
296.44	"famous_faces_false_combination"	1	"right"	0.93	2.508	"famous_faces"	298.922	297.37
299.717	"famous_faces_false_combination"	1	"right"	1.259	2.507	"famous_faces"	302.209	300.976
303.261	"recently_learned_faces_baseline"	1	"right"	1.323	2.507	"recently_learned_faces_baseline"	305.747	304.584
306.805	"famous_faces_correct_combination"	1	"left"	0.855	2.507	"famous_faces"	309.286	307.66
310.332	"recently_learned_faces_baseline"	1	"left"	0.861	2.507	"recently_learned_faces_baseline"	312.825	311.193
313.675	"famous_faces_correct_combination"	1	"left"	0.863	2.508	"famous_faces"	316.162	314.538
317.219	"recently_learned_faces_correct_combination"	1	"left"	1.874	2.507	"recently_learned_faces"	319.7	319.093
320.746	"recently_learned_faces_false_combination"	1	"right"	1.298	2.508	"recently_learned_faces"	323.239	322.044
324.34	"recently_learned_faces_false_combination"	1	"right"	1.391	2.508	"recently_learned_faces"	326.828	325.731
327.734	"recently_learned_faces_correct_combination"	1	"left"	2.121	2.507	"recently_learned_faces"	330.216	329.855
331.161	"recently_learned_faces_baseline"	1	"right"	1.499	2.507	"recently_learned_faces_baseline"	333.654	332.66
334.805	"famous_faces_correct_combination"	1	"left"	1.289	2.507	"famous_faces"	337.293	336.094
340.288	"recently_learned_faces_baseline"	1	"left"	0.903	2.524	"recently_learned_faces_baseline"	342.782	341.191
343.882	"recently_learned_faces_baseline"	1	"right"	0.971	2.507	"recently_learned_faces_baseline"	346.371	344.853
347.225	"famous_faces_false_combination"	1	"right"	1.182	2.508	"famous_faces"	349.708	348.407
350.903	"recently_learned_faces_correct_combination"	1	"left"	1.342	2.524	"recently_learned_faces"	353.397	352.245
354.296	"famous_faces_false_combination"	1	"right"	1.159	2.508	"famous_faces"	356.785	355.455
357.69	"recently_learned_faces_baseline"	1	"right"	1.072	2.507	"recently_learned_faces_baseline"	360.173	358.762
361.217	"recently_learned_faces_baseline"	1	"left"	1.309	2.507	"recently_learned_faces_baseline"	363.711	362.526
364.811	"recently_learned_faces_false_combination"	1	"right"	1.347	2.508	"recently_learned_faces"	367.3	366.158
368.255	"famous_faces_false_combination"	1	"right"	1.019	2.507	"famous_faces"	370.738	369.274
371.849	"famous_faces_correct_combination"	1	"left"	1.462	2.507	"famous_faces"	374.327	373.311
375.225	"famous_faces_false_combination"	1	"right"	1.091	2.508	"famous_faces"	377.715	376.316
378.82	"recently_learned_faces_baseline"	1	"right"	1.495	2.507	"recently_learned_faces_baseline"	381.304	380.315
382.163	"recently_learned_faces_false_combination"	1	"right"	1.448	2.507	"recently_learned_faces"	384.641	383.611
387.796	"recently_learned_faces_baseline"	1	"left"	1.163	2.508	"recently_learned_faces_baseline"	390.281	388.959
391.34	"famous_faces_false_combination"	1	"right"	0.94	2.508	"famous_faces"	393.82	392.28
394.717	"famous_faces_correct_combination"	1	"left"	0.85	2.507	"famous_faces"	397.208	395.567
398.411	"recently_learned_faces_baseline"	1	"right"	0.945	2.508	"recently_learned_faces_baseline"	400.897	399.356
401.855	"recently_learned_faces_correct_combination"	0	"right"	1.226	2.507	"recently_learned_faces"	404.335	403.081
405.182	"famous_faces_correct_combination"	0	"right"	1.045	2.507	"famous_faces"	407.672	406.227
408.776	"recently_learned_faces_false_combination"	0	"left"	2.363	2.507	"recently_learned_faces"	411.261	411.139
412.219	"famous_faces_correct_combination"	1	"left"	0.834	2.508	"famous_faces"	414.699	413.053
415.797	"famous_faces_false_combination"	1	"right"	1.079	2.507	"famous_faces"	418.288	416.876
419.341	"famous_faces_baseline"	1	"right"	1.194	2.507	"famous_faces_baseline"	421.826	420.535
422.734	"famous_faces_correct_combination"	1	"left"	1.071	2.507	"famous_faces"	425.214	423.805
426.311	"famous_faces_baseline"	1	"right"	0.953	2.508	"famous_faces_baseline"	428.803	427.264
429.604	"famous_faces_baseline"	1	"left"	1.806	2.508	"famous_faces_baseline"	432.09	431.41
435.238	"recently_learned_faces_baseline"	1	"left"	1.179	2.507	"recently_learned_faces_baseline"	437.73	436.417
438.832	"recently_learned_faces_false_combination"	0	"left"	1.005	2.508	"recently_learned_faces"	441.319	439.837
442.376	"recently_learned_faces_correct_combination"	1	"left"	1.457	2.507	"recently_learned_faces"	444.858	443.833
445.903	"recently_learned_faces_baseline"	1	"left"	1.188	2.508	"recently_learned_faces_baseline"	448.396	447.091
449.246	"recently_learned_faces_false_combination"	0	"left"	0.804	2.508	"recently_learned_faces"	451.733	450.05
452.69	"recently_learned_faces_baseline"	1	"left"	1.083	2.508	"recently_learned_faces_baseline"	455.171	453.773
456.318	"recently_learned_faces_baseline"	1	"left"	0.667	2.507	"recently_learned_faces_baseline"	458.81	456.985
459.761	"famous_faces_baseline"	1	"left"	0.643	2.508	"famous_faces_baseline"	462.248	460.404
463.205	"famous_faces_correct_combination"	1	"left"	0.728	2.507	"famous_faces"	465.686	463.933
466.832	"famous_faces_baseline"	1	"right"	0.786	2.508	"famous_faces_baseline"	469.325	467.618
470.176	"famous_faces_false_combination"	1	"right"	1.367	2.507	"famous_faces"	472.662	471.543
473.82	"famous_faces_false_combination"	1	"right"	0.983	2.507	"famous_faces"	476.301	474.803
477.247	"recently_learned_faces_baseline"	1	"left"	1.116	2.507	"recently_learned_faces_baseline"	479.739	478.363
482.847	"famous_faces_baseline"	1	"right"	1.021	2.507	"famous_faces_baseline"	485.33	483.868
486.224	"recently_learned_faces_correct_combination"	1	"left"	1.479	2.507	"recently_learned_faces"	488.718	487.703
489.918	"recently_learned_faces_baseline"	1	"left"	1.032	2.507	"recently_learned_faces_baseline"	492.407	490.95
493.362	"recently_learned_faces_correct_combination"	1	"left"	1.305	2.507	"recently_learned_faces"	495.845	494.667
496.738	"famous_faces_baseline"	1	"left"	1.015	2.508	"famous_faces_baseline"	499.232	497.753
500.282	"recently_learned_faces_false_combination"	1	"right"	1.723	2.508	"recently_learned_faces"	502.771	502.005
503.726	"famous_faces_false_combination"	1	"right"	1.273	2.507	"famous_faces"	506.209	504.999
507.32	"recently_learned_faces_baseline"	1	"left"	0.951	2.507	"recently_learned_faces_baseline"	509.798	508.271
510.847	"famous_faces_baseline"	1	"right"	0.8	2.508	"famous_faces_baseline"	513.336	511.647
514.14	"recently_learned_faces_false_combination"	1	"right"	1.117	2.508	"recently_learned_faces"	516.623	515.257
517.667	"famous_faces_baseline"	1	"left"	1.109	2.508	"famous_faces_baseline"	520.161	518.776
521.261	"famous_faces_false_combination"	1	"right"	1.448	2.508	"famous_faces"	523.75	522.709
524.705	"recently_learned_faces_false_combination"	1	"right"	1.238	2.508	"recently_learned_faces"	527.188	525.943
530.439	"famous_faces_correct_combination"	1	"left"	0.883	2.507	"famous_faces"	532.929	531.322
533.732	"recently_learned_faces_false_combination"	1	"right"	1.59	2.508	"recently_learned_faces"	536.216	535.322
537.376	"recently_learned_faces_baseline"	1	"right"	1.302	2.508	"recently_learned_faces_baseline"	539.855	538.678
540.753	"recently_learned_faces_correct_combination"	0	"right"	1.013	2.507	"recently_learned_faces"	543.242	541.766
544.297	"famous_faces_correct_combination"	1	"left"	0.772	2.507	"famous_faces"	546.781	545.069
547.891	"famous_faces_correct_combination"	1	"left"	0.883	2.507	"famous_faces"	550.37	548.774
551.318	"recently_learned_faces_false_combination"	1	"right"	1.005	2.507	"recently_learned_faces"	553.808	552.323
554.761	"famous_faces_baseline"	1	"left"	1.263	2.508	"famous_faces_baseline"	557.246	556.024
558.205	"famous_faces_false_combination"	1	"right"	0.87	2.508	"famous_faces"	560.684	559.075
561.632	"famous_faces_false_combination"	1	"right"	0.895	2.508	"famous_faces"	564.122	562.527
565.276	"famous_faces_false_combination"	1	"right"	0.913	2.508	"famous_faces"	567.761	566.189
568.67	"recently_learned_faces_false_combination"	0	"left"	0.939	2.507	"recently_learned_faces"	571.148	569.609
572.197	"recently_learned_faces_false_combination"	0	"left"	1.645	2.507	"recently_learned_faces"	574.687	573.842
577.947	"recently_learned_faces_baseline"	1	"left"	0.737	2.508	"recently_learned_faces_baseline"	580.428	578.684
581.274	"recently_learned_faces_baseline"	1	"right"	1.286	2.507	"recently_learned_faces_baseline"	583.765	582.56
584.818	"recently_learned_faces_false_combination"	0	NA	NA	2.507	"recently_learned_faces"	587.304	NA
588.362	"famous_faces_correct_combination"	1	"left"	1.035	2.507	"famous_faces"	590.843	589.397
591.688	"recently_learned_faces_baseline"	1	"right"	0.77	2.508	"recently_learned_faces_baseline"	594.18	592.458
595.282	"famous_faces_correct_combination"	1	"left"	0.947	2.508	"famous_faces"	597.769	596.229
598.826	"famous_faces_baseline"	1	"left"	1.053	2.508	"famous_faces_baseline"	601.308	599.879
602.203	"recently_learned_faces_false_combination"	0	"left"	1.83	2.508	"recently_learned_faces"	604.695	604.033
605.647	"recently_learned_faces_false_combination"	1	"right"	0.965	2.507	"recently_learned_faces"	608.133	606.612
609.341	"famous_faces_baseline"	1	"right"	1.076	2.508	"famous_faces_baseline"	611.822	610.417
612.668	"famous_faces_baseline"	1	"right"	1.066	2.507	"famous_faces_baseline"	615.159	613.734
616.212	"recently_learned_faces_baseline"	0	"right"	0.722	2.507	"recently_learned_faces_baseline"	618.698	616.934
619.756	"famous_faces_correct_combination"	1	"left"	0.771	2.507	"famous_faces"	622.237	620.527
625.573	"famous_faces_correct_combination"	1	"left"	0.826	2.273	"famous_faces"	627.827	626.399
628.782	"famous_faces_false_combination"	1	"right"	1.08	2.508	"famous_faces"	631.265	629.862
632.209	"famous_faces_correct_combination"	1	"left"	0.947	2.508	"famous_faces"	634.703	633.156
635.904	"famous_faces_false_combination"	1	"right"	1.008	2.507	"famous_faces"	638.392	636.912
639.347	"recently_learned_faces_false_combination"	0	"left"	1.455	2.508	"recently_learned_faces"	641.83	640.802
642.774	"famous_faces_false_combination"	1	"right"	0.949	2.508	"famous_faces"	645.268	643.723
646.168	"famous_faces_false_combination"	1	"right"	0.986	2.507	"famous_faces"	648.656	647.154
649.812	"recently_learned_faces_correct_combination"	1	"left"	1.87	2.507	"recently_learned_faces"	652.295	651.682
653.339	"famous_faces_baseline"	1	"left"	1.015	2.508	"famous_faces_baseline"	655.833	654.354
656.682	"recently_learned_faces_correct_combination"	1	"left"	1.637	2.508	"recently_learned_faces"	659.17	658.319
660.327	"recently_learned_faces_false_combination"	1	"right"	2.082	2.507	"recently_learned_faces"	662.809	662.409
663.703	"famous_faces_baseline"	1	"right"	1.362	2.508	"famous_faces_baseline"	666.197	665.065
667.097	"famous_faces_false_combination"	1	"right"	1.297	2.507	"famous_faces"	669.585	668.394
672.898	"recently_learned_faces_correct_combination"	1	"left"	1.912	2.507	"recently_learned_faces"	675.376	674.81
676.224	"recently_learned_faces_baseline"	1	"left"	1.052	2.508	"recently_learned_faces_baseline"	678.713	677.276
679.818	"recently_learned_faces_correct_combination"	1	"left"	0.788	2.508	"recently_learned_faces"	682.302	680.606
683.262	"famous_faces_false_combination"	1	"right"	0.999	2.507	"famous_faces"	685.74	684.261
686.889	"recently_learned_faces_correct_combination"	1	"left"	1.489	2.508	"recently_learned_faces"	689.379	688.378
690.333	"famous_faces_baseline"	1	"left"	0.8	2.507	"famous_faces_baseline"	692.817	691.133
693.71	"famous_faces_baseline"	1	"left"	0.796	2.524	"famous_faces_baseline"	696.204	694.506
697.254	"famous_faces_correct_combination"	1	"left"	0.786	2.507	"famous_faces"	699.743	698.04
700.848	"recently_learned_faces_false_combination"	0	"left"	1.368	2.507	"recently_learned_faces"	703.332	702.216
704.141	"recently_learned_faces_correct_combination"	1	"left"	0.662	2.507	"recently_learned_faces"	706.619	704.803
707.718	"recently_learned_faces_correct_combination"	1	"left"	1.578	2.508	"recently_learned_faces"	710.208	709.296
711.312	"famous_faces_baseline"	1	"left"	0.784	2.508	"famous_faces_baseline"	713.797	712.096
714.655	"recently_learned_faces_baseline"	1	"right"	1.024	2.508	"recently_learned_faces_baseline"	717.134	715.679
720.289	"famous_faces_false_combination"	1	"right"	0.982	2.508	"famous_faces"	722.774	721.271
723.883	"famous_faces_baseline"	1	"left"	1.5	2.508	"famous_faces_baseline"	726.363	725.383
727.21	"recently_learned_faces_false_combination"	1	"right"	1.84	2.507	"recently_learned_faces"	729.7	729.05
730.904	"famous_faces_correct_combination"	1	"left"	0.874	2.508	"famous_faces"	733.389	731.778
734.298	"recently_learned_faces_correct_combination"	1	"left"	0.896	2.507	"recently_learned_faces"	736.777	735.194
737.875	"recently_learned_faces_correct_combination"	1	"left"	1.128	2.507	"recently_learned_faces"	740.366	739.003
741.268	"famous_faces_correct_combination"	1	"left"	0.91	2.508	"famous_faces"	743.754	742.178
744.712	"recently_learned_faces_correct_combination"	1	"left"	0.994	2.507	"recently_learned_faces"	747.192	745.706
748.139	"recently_learned_faces_false_combination"	1	"right"	2.051	2.507	"recently_learned_faces"	750.63	750.19
751.783	"recently_learned_faces_baseline"	1	"right"	1.193	2.508	"recently_learned_faces_baseline"	754.269	752.976
755.176	"recently_learned_faces_correct_combination"	1	"left"	1.174	2.508	"recently_learned_faces"	757.656	756.35
758.603	"recently_learned_faces_false_combination"	1	"right"	1.143	2.508	"recently_learned_faces"	761.094	759.746
762.197	"recently_learned_faces_correct_combination"	1	"left"	1.155	2.508	"recently_learned_faces"	764.683	763.352
767.931	"recently_learned_faces_baseline"	1	"right"	0.904	2.524	"recently_learned_faces_baseline"	770.424	768.835
771.375	"famous_faces_false_combination"	1	"right"	1.073	2.507	"famous_faces"	773.862	772.448
774.768	"famous_faces_correct_combination"	1	"left"	0.804	2.508	"famous_faces"	777.249	775.572
778.195	"recently_learned_faces_false_combination"	0	NA	NA	2.508	"recently_learned_faces"	780.687	NA
781.789	"famous_faces_baseline"	1	"left"	1.486	2.508	"famous_faces_baseline"	784.276	783.275
785.183	"famous_faces_correct_combination"	1	"left"	0.859	2.507	"famous_faces"	787.664	786.042
788.76	"famous_faces_correct_combination"	1	"left"	0.749	2.508	"famous_faces"	791.253	789.509
792.304	"famous_faces_correct_combination"	1	"left"	0.754	2.507	"famous_faces"	794.792	793.058
