"onset"	"trial_type"	"accuracy"	"button"	"response_time"	"duration"	"time_to_offset_alternative_onset"	"time_to_RT_alternative_onset_or_duration"
10.949	"Visual_Lure"	0	NA	NA	1.789	12.738	NA
13.273	"Visual_Lure"	1	"left"	1.144	1.789	15.062	14.417
15.814	"Visual_Same"	1	"right"	1.125	1.789	17.603	16.939
18.589	"Visual_Lure"	1	"left"	0.905	1.554	20.143	19.494
20.695	"Visual_Different"	0	NA	NA	1.789	22.484	NA
28.251	"Auditory_Different"	0	NA	NA	1.789	30.04	NA
30.825	"Auditory_Different"	0	NA	NA	1.789	32.614	NA
33.366	"Auditory_Same"	0	"left"	1.116	1.789	35.155	34.482
35.757	"Auditory_Lure"	0	"right"	1.524	1.788	37.545	37.281
38.398	"Auditory_Different"	1	"left"	1.202	1.789	40.187	39.6
45.887	"Visual_Different"	1	"left"	1.229	1.789	47.676	47.116
48.227	"Visual_Lure"	1	"left"	0.895	1.789	50.016	49.122
50.818	"Visual_Different"	1	"left"	0.864	1.789	52.607	51.682
53.409	"Visual_Same"	1	"right"	0.887	1.789	55.198	54.296
55.75	"Visual_Same"	1	"right"	0.892	1.772	57.522	56.642
58.374	"Visual_Lure"	1	"left"	1.183	1.789	60.163	59.557
60.815	"Visual_Lure"	1	"left"	0.661	1.788	62.603	61.476
68.287	"Auditory_Same"	1	"right"	1.138	1.789	70.076	69.425
70.728	"Auditory_Same"	1	"right"	1.004	1.788	72.516	71.732
73.319	"Auditory_Different"	1	"left"	0.631	1.788	75.107	73.95
75.91	"Auditory_Same"	1	"right"	0.946	1.789	77.699	76.856
78.35	"Auditory_Lure"	1	"left"	1.225	1.772	80.122	79.575
85.739	"Visual_Same"	1	"right"	1.079	1.789	87.528	86.818
88.33	"Visual_Lure"	1	"left"	0.715	1.789	90.119	89.045
90.771	"Visual_Same"	1	"right"	0.928	1.789	92.56	91.699
93.412	"Visual_Different"	1	"left"	1.736	1.789	95.201	95.148
95.786	"Visual_Different"	1	"left"	1.526	1.788	97.574	97.312
98.327	"Visual_Lure"	1	"left"	1.741	1.788	100.115	100.068
105.799	"Auditory_Same"	1	"right"	0.892	1.789	107.588	106.691
108.223	"Auditory_Different"	1	"left"	0.816	1.789	110.012	109.039
110.814	"Auditory_Same"	1	"right"	1.183	1.789	112.603	111.997
113.405	"Auditory_Lure"	0	NA	NA	1.789	115.194	NA
115.846	"Auditory_Lure"	1	"left"	1.559	1.788	117.634	117.405
118.286	"Auditory_Different"	1	"left"	1.168	1.789	120.075	119.454
120.71	"Auditory_Different"	0	NA	NA	1.789	122.499	NA
128.283	"Visual_Different"	1	"left"	1.014	1.788	130.071	129.297
130.723	"Visual_Different"	1	"left"	1.156	1.789	132.512	131.879
133.314	"Visual_Lure"	1	"left"	1.126	1.789	135.103	134.44
135.705	"Visual_Different"	1	"left"	1.278	1.789	137.494	136.983
138.246	"Visual_Same"	1	"right"	1.086	1.788	140.034	139.332
145.735	"Auditory_Lure"	0	"right"	1.11	1.788	147.523	146.845
148.376	"Auditory_Same"	1	"right"	0.816	1.789	150.165	149.192
150.917	"Auditory_Lure"	1	"left"	0.857	1.789	152.706	151.774
153.358	"Auditory_Different"	1	"left"	0.854	1.788	155.146	154.212
155.781	"Auditory_Different"	1	"left"	1.321	1.789	157.57	157.102
158.372	"Auditory_Same"	1	"right"	1.042	1.789	160.161	159.414
160.663	"Auditory_Same"	1	"right"	0.926	1.788	162.451	161.589
168.436	"Visual_Same"	1	"right"	0.715	1.789	170.225	169.151
170.876	"Visual_Same"	1	"right"	0.831	1.789	172.665	171.707
173.267	"Visual_Different"	1	"left"	0.956	1.789	175.056	174.223
175.858	"Visual_Lure"	1	"left"	0.998	1.789	177.647	176.856
178.382	"Visual_Lure"	1	"left"	0.819	1.789	180.171	179.201
180.773	"Visual_Same"	1	"right"	0.823	1.788	182.561	181.596
188.295	"Auditory_Lure"	1	"left"	0.736	1.789	190.084	189.031
190.92	"Auditory_Different"	1	"left"	1.299	1.788	192.708	192.219
193.26	"Auditory_Lure"	1	"left"	1.5	1.789	195.049	194.76
195.801	"Auditory_Same"	1	"right"	0.84	1.788	197.589	196.641
198.191	"Auditory_Same"	1	"right"	0.705	1.789	199.98	198.896
200.832	"Auditory_Different"	1	"left"	1.659	1.789	202.621	202.491
208.238	"Visual_Lure"	1	"left"	0.905	1.789	210.027	209.143
210.829	"Visual_Lure"	1	"left"	0.82	1.789	212.618	211.649
213.37	"Visual_Different"	1	"left"	1.016	1.789	215.159	214.386
215.744	"Visual_Same"	1	"right"	0.901	1.788	217.532	216.645
218.184	"Visual_Lure"	1	"left"	1.149	1.789	219.973	219.333
225.79	"Auditory_Different"	1	"left"	0.946	1.789	227.579	226.736
228.331	"Auditory_Same"	1	"right"	0.853	1.789	230.12	229.184
230.722	"Auditory_Different"	1	"left"	0.989	1.772	232.494	231.711
233.346	"Auditory_Lure"	1	"left"	1.207	1.789	235.135	234.553
235.887	"Auditory_Lure"	1	"left"	1.154	1.789	237.676	237.041
238.227	"Auditory_Same"	1	"right"	0.943	1.789	240.016	239.17
245.934	"Visual_Same"	1	"right"	0.75	1.788	247.722	246.684
248.374	"Visual_Lure"	1	"left"	1.128	1.789	250.163	249.502
250.915	"Visual_Different"	1	"left"	0.747	1.789	252.704	251.662
253.255	"Visual_Lure"	1	"left"	1.084	1.789	255.044	254.339
255.679	"Visual_Lure"	1	"left"	0.685	1.789	257.468	256.364
258.27	"Visual_Different"	1	"left"	0.718	1.789	260.059	258.988
260.861	"Visual_Different"	1	"left"	1.449	1.789	262.65	262.31
268.434	"Auditory_Different"	1	"left"	0.837	1.789	270.223	269.271
270.825	"Auditory_Different"	1	"left"	1.184	1.788	272.613	272.009
273.365	"Auditory_Lure"	1	"left"	1.092	1.789	275.154	274.457
275.706	"Auditory_Different"	1	"left"	1.441	1.788	277.494	277.147
278.23	"Auditory_Same"	1	"right"	1.388	1.789	280.019	279.618
285.836	"Visual_Different"	1	"left"	0.95	1.789	287.625	286.786
288.277	"Visual_Same"	1	"right"	0.895	1.788	290.065	289.172
290.868	"Visual_Lure"	1	"left"	0.934	1.788	292.656	291.802
293.191	"Visual_Same"	1	"right"	0.848	1.789	294.98	294.039
295.732	"Visual_Same"	1	"right"	0.669	1.789	297.521	296.401
298.323	"Visual_Lure"	1	"left"	0.764	1.789	300.112	299.087
300.764	"Visual_Lure"	1	"left"	1.147	1.788	302.552	301.911
308.387	"Auditory_Same"	1	"right"	1.109	1.788	310.175	309.496
310.927	"Auditory_Same"	1	"right"	0.647	1.789	312.716	311.574
313.218	"Auditory_Lure"	1	"left"	0.874	1.788	315.006	314.092
315.792	"Auditory_Different"	1	"left"	1.132	1.789	317.581	316.924
318.333	"Auditory_Same"	1	"right"	0.795	1.789	320.122	319.128
325.738	"Visual_Lure"	1	"left"	0.954	1.789	327.527	326.692
328.43	"Visual_Lure"	1	"left"	0.76	1.788	330.218	329.19
330.753	"Visual_Same"	1	"right"	0.804	1.789	332.542	331.557
333.394	"Visual_Different"	1	"left"	0.774	1.789	335.183	334.168
335.785	"Visual_Different"	1	"left"	0.783	1.789	337.574	336.568
338.175	"Visual_Lure"	0	"right"	0.901	1.789	339.964	339.076
345.781	"Auditory_Different"	1	"left"	1.013	1.789	347.57	346.794
348.423	"Auditory_Same"	1	"right"	0.781	1.788	350.211	349.204
350.713	"Auditory_Lure"	1	"left"	0.733	1.788	352.501	351.446
353.304	"Auditory_Same"	1	"right"	0.825	1.788	355.092	354.129
355.828	"Auditory_Same"	1	"right"	1.049	1.789	357.617	356.877
358.369	"Auditory_Lure"	1	"left"	1.007	1.789	360.158	359.376
360.709	"Auditory_Lure"	1	"left"	0.999	1.789	362.498	361.708
368.382	"Visual_Different"	1	"left"	1.156	1.789	370.171	369.538
370.923	"Visual_Same"	1	"right"	0.896	1.789	372.712	371.819
373.213	"Visual_Different"	1	"left"	0.748	1.789	375.002	373.961
375.854	"Visual_Lure"	1	"left"	1.024	1.789	377.643	376.878
378.278	"Visual_Lure"	0	"right"	0.851	1.789	380.067	379.129
380.719	"Visual_Same"	1	"right"	0.902	1.789	382.508	381.621
388.342	"Auditory_Lure"	0	"right"	1.083	1.788	390.13	389.425
390.715	"Auditory_Lure"	1	"left"	0.851	1.789	392.504	391.566
393.306	"Auditory_Same"	1	"right"	1.07	1.789	395.095	394.376
395.697	"Auditory_Different"	1	"left"	1.079	1.789	397.486	396.776
398.388	"Auditory_Different"	1	"left"	0.942	1.789	400.177	399.33
400.729	"Auditory_Lure"	1	"left"	1.145	1.771	402.5	401.874
408.234	"Visual_Same"	1	"right"	0.62	1.789	410.023	408.854
410.875	"Visual_Different"	1	"left"	0.649	1.789	412.664	411.524
413.316	"Visual_Same"	1	"right"	0.846	1.789	415.105	414.162
415.89	"Visual_Lure"	1	"left"	0.755	1.789	417.679	416.645
418.231	"Visual_Lure"	1	"left"	0.87	1.788	420.019	419.101
420.772	"Visual_Different"	1	"left"	0.772	1.788	422.56	421.544
423.313	"Visual_Different"	1	"left"	0.707	1.788	425.101	424.02
430.885	"Auditory_Same"	1	"right"	1.079	1.789	432.674	431.964
433.326	"Auditory_Lure"	0	"right"	1.244	1.788	435.114	434.57
435.699	"Auditory_Same"	1	"right"	0.761	1.789	437.488	436.46
438.341	"Auditory_Different"	1	"left"	0.716	1.788	440.129	439.057
440.882	"Auditory_Different"	1	"left"	0.959	1.788	442.67	441.841
443.222	"Auditory_Lure"	1	"left"	1.351	1.789	445.011	444.573
450.728	"Visual_Different"	1	"left"	0.806	1.788	452.516	451.534
453.419	"Visual_Different"	1	"left"	1.153	1.789	455.208	454.572
455.759	"Visual_Lure"	1	"left"	0.864	1.789	457.548	456.623
458.35	"Visual_Same"	1	"right"	0.676	1.789	460.139	459.026
460.874	"Visual_Same"	1	"right"	0.687	1.789	462.663	461.561
463.215	"Visual_Different"	1	"left"	1.066	1.788	465.003	464.281
470.737	"Auditory_Lure"	1	"left"	1.114	1.789	472.526	471.851
473.261	"Auditory_Different"	1	"left"	1.263	1.789	475.05	474.524
475.852	"Auditory_Same"	1	"right"	0.907	1.789	477.641	476.759
478.393	"Auditory_Different"	1	"left"	0.902	1.789	480.182	479.295
480.784	"Auditory_Different"	1	"left"	1.133	1.789	482.573	481.917
483.375	"Auditory_Same"	1	"right"	1.002	1.789	485.164	484.377
485.648	"Auditory_Same"	1	"right"	0.91	1.789	487.437	486.558
493.238	"Visual_Lure"	1	"left"	0.641	1.788	495.026	493.879
495.812	"Visual_Different"	1	"left"	0.792	1.789	497.601	496.604
498.202	"Visual_Same"	1	"right"	0.945	1.789	499.991	499.147
500.743	"Visual_Different"	1	"left"	0.987	1.789	502.532	501.73
503.284	"Visual_Different"	1	"left"	1.009	1.789	505.073	504.293
505.875	"Visual_Same"	1	"right"	0.935	1.789	507.664	506.81
508.299	"Visual_Same"	1	"right"	0.946	1.789	510.088	509.245
515.838	"Auditory_Lure"	1	"left"	1.042	1.789	517.627	516.88
518.363	"Auditory_Lure"	1	"left"	1.197	1.788	520.151	519.56
520.753	"Auditory_Different"	1	"left"	0.994	1.789	522.542	521.747
523.194	"Auditory_Same"	1	"right"	0.934	1.788	524.982	524.128
525.885	"Auditory_Lure"	1	"left"	0.859	1.789	527.674	526.744
533.424	"Visual_Same"	1	"right"	0.664	1.789	535.213	534.088
535.865	"Visual_Same"	1	"right"	0.537	1.788	537.653	536.402
538.205	"Visual_Lure"	1	"left"	0.795	1.789	539.994	539
540.796	"Visual_Different"	1	"left"	0.668	1.789	542.585	541.464
543.237	"Visual_Same"	1	"right"	0.768	1.788	545.025	544.005
550.776	"Auditory_Different"	1	"left"	0.66	1.789	552.565	551.436
553.317	"Auditory_Different"	1	"left"	1.146	1.788	555.105	554.463
555.858	"Auditory_Lure"	1	"left"	0.771	1.788	557.646	556.629
558.399	"Auditory_Same"	1	"right"	0.776	1.788	560.187	559.175
560.722	"Auditory_Same"	1	"right"	0.746	1.789	562.511	561.468
563.163	"Auditory_Different"	1	"left"	0.78	1.788	564.951	563.943
570.735	"Visual_Same"	1	"right"	0.667	1.789	572.524	571.402
573.41	"Visual_Same"	1	"right"	0.589	1.789	575.199	573.999
575.851	"Visual_Different"	1	"left"	0.631	1.788	577.639	576.482
578.291	"Visual_Same"	1	"right"	0.669	1.789	580.08	578.96
580.732	"Visual_Lure"	1	"left"	0.698	1.788	582.52	581.43
588.338	"Auditory_Same"	1	"right"	1.095	1.772	590.11	589.433
590.862	"Auditory_Same"	1	"right"	0.78	1.789	592.651	591.642
593.303	"Auditory_Different"	1	"left"	0.863	1.788	595.091	594.166
595.844	"Auditory_Lure"	0	"right"	0.768	1.788	597.632	596.612
598.234	"Auditory_Lure"	1	"left"	0.951	1.789	600.023	599.185
600.658	"Auditory_Same"	1	"right"	0.751	1.789	602.447	601.409
608.23	"Visual_Lure"	1	"left"	1.18	1.789	610.019	609.41
610.922	"Visual_Same"	1	"right"	0.767	1.788	612.71	611.689
613.346	"Visual_Lure"	1	"left"	0.766	1.788	615.134	614.112
615.786	"Visual_Different"	1	"left"	0.742	1.789	617.575	616.528
618.227	"Visual_Different"	1	"left"	0.826	1.789	620.016	619.053
620.818	"Visual_Same"	1	"right"	0.693	1.789	622.607	621.511
623.208	"Visual_Same"	1	"right"	0.72	1.789	624.997	623.928
630.931	"Auditory_Different"	1	"left"	0.893	1.789	632.72	631.824
633.372	"Auditory_Lure"	0	"right"	0.857	1.789	635.161	634.229
635.696	"Auditory_Different"	1	"left"	1.003	1.788	637.484	636.699
638.237	"Auditory_Same"	1	"right"	1.032	1.788	640.025	639.269
640.777	"Auditory_Same"	1	"right"	0.787	1.789	642.566	641.564
643.369	"Auditory_Lure"	1	"left"	0.861	1.788	645.157	644.23
645.709	"Auditory_Lure"	1	"left"	1.456	1.772	647.481	647.165
653.432	"Visual_Lure"	1	"left"	1.247	1.789	655.221	654.679
655.722	"Visual_Different"	1	"left"	0.799	1.789	657.511	656.521
658.296	"Visual_Lure"	0	"right"	0.728	1.789	660.085	659.024
660.737	"Visual_Same"	0	NA	NA	1.789	662.526	NA
663.378	"Visual_Same"	1	"right"	0.717	1.789	665.167	664.095
665.819	"Visual_Different"	1	"left"	0.796	1.788	667.607	666.615
673.324	"Auditory_Lure"	0	"right"	1.37	1.789	675.113	674.694
675.916	"Auditory_Lure"	0	"right"	0.727	1.788	677.704	676.643
678.206	"Auditory_Same"	1	"right"	0.678	1.788	679.994	678.884
680.847	"Auditory_Lure"	0	"right"	0.529	1.789	682.636	681.376
683.371	"Auditory_Different"	1	"left"	0.908	1.789	685.16	684.279
690.827	"Visual_Different"	1	"left"	0.812	1.788	692.615	691.639
693.217	"Visual_Different"	1	"left"	0.908	1.789	695.006	694.125
695.808	"Visual_Same"	1	"right"	0.716	1.789	697.597	696.524
698.383	"Visual_Lure"	1	"left"	0.741	1.788	700.171	699.124
700.673	"Visual_Different"	1	"left"	0.941	1.788	702.461	701.614
708.279	"Auditory_Same"	1	"right"	1.713	1.788	710.067	709.992
710.719	"Auditory_Lure"	1	"left"	1.437	1.789	712.508	712.156
713.344	"Auditory_Different"	1	"left"	1.099	1.788	715.132	714.443
715.784	"Auditory_Lure"	1	"left"	1.186	1.789	717.573	716.97
718.325	"Auditory_Lure"	0	NA	NA	1.789	720.114	NA
720.766	"Auditory_Different"	1	"left"	1.098	1.789	722.555	721.864
723.207	"Auditory_Different"	1	"left"	0.817	1.788	724.995	724.024
