"onset"	"trial_type"	"accuracy"	"button"	"response_time"	"duration"	"time_to_offset_alternative_onset"	"time_to_RT_alternative_onset_or_duration"
10.85	"Visual_Same"	1	"right"	0.665	1.789	12.639	11.515
13.424	"Visual_Lure"	1	"left"	0.55	1.789	15.213	13.974
15.714	"Visual_Different"	0	"right"	0.645	1.789	17.503	16.359
18.255	"Visual_Lure"	1	"left"	1.453	1.789	20.044	19.708
20.847	"Visual_Lure"	1	"left"	1.305	1.788	22.635	22.152
23.287	"Visual_Different"	1	"left"	0.856	1.789	25.076	24.143
25.862	"Visual_Different"	1	"left"	0.603	1.788	27.65	26.465
33.301	"Auditory_Different"	0	NA	NA	1.788	35.089	NA
35.724	"Auditory_Same"	1	"right"	1.732	1.789	37.513	37.456
38.316	"Auditory_Lure"	0	"right"	1.244	1.788	40.104	39.56
40.856	"Auditory_Same"	1	"right"	0.87	1.789	42.645	41.726
43.397	"Auditory_Same"	1	"right"	1.526	1.789	45.186	44.923
45.688	"Auditory_Lure"	1	"left"	1.356	1.788	47.476	47.044
48.362	"Auditory_Lure"	1	"left"	1.515	1.789	50.151	49.877
55.902	"Visual_Different"	1	"left"	0.928	1.788	57.69	56.83
58.225	"Visual_Same"	1	"right"	1.057	1.789	60.014	59.282
60.766	"Visual_Different"	1	"left"	0.821	1.789	62.555	61.587
63.357	"Visual_Lure"	0	"right"	0.741	1.789	65.146	64.098
65.898	"Visual_Lure"	1	"left"	1.044	1.789	67.687	66.942
68.272	"Visual_Same"	1	"right"	1.102	1.789	70.061	69.374
75.895	"Auditory_Same"	0	NA	NA	1.789	77.684	NA
78.285	"Auditory_Same"	0	NA	NA	1.789	80.074	NA
80.81	"Auditory_Different"	0	NA	NA	1.788	82.598	NA
83.25	"Auditory_Lure"	0	"right"	1.289	1.789	85.039	84.539
85.891	"Auditory_Lure"	1	"left"	1.22	1.789	87.68	87.111
88.332	"Auditory_Same"	0	"left"	1.149	1.789	90.121	89.481
95.788	"Visual_Lure"	1	"left"	0.782	1.788	97.576	96.57
98.228	"Visual_Different"	0	"right"	0.793	1.789	100.017	99.021
100.87	"Visual_Lure"	1	"left"	0.811	1.788	102.658	101.681
103.21	"Visual_Same"	0	"left"	0.708	1.789	104.999	103.918
105.734	"Visual_Same"	0	"left"	0.722	1.789	107.523	106.456
108.376	"Visual_Different"	0	"right"	0.813	1.788	110.164	109.189
115.848	"Auditory_Different"	1	"left"	1.214	1.789	117.637	117.062
118.238	"Auditory_Different"	1	"left"	1.276	1.789	120.027	119.514
120.913	"Auditory_Lure"	0	"right"	1.17	1.789	122.702	122.083
123.203	"Auditory_Same"	1	"right"	1.136	1.789	124.992	124.339
125.794	"Auditory_Same"	1	"right"	0.858	1.789	127.583	126.652
128.335	"Auditory_Different"	1	"left"	1.193	1.789	130.124	129.528
135.841	"Visual_Lure"	0	NA	NA	1.789	137.63	NA
138.282	"Visual_Different"	1	"left"	1.356	1.789	140.071	139.638
140.923	"Visual_Same"	1	"right"	0.784	1.789	142.712	141.707
143.314	"Visual_Different"	1	"left"	0.7	1.772	145.086	144.014
145.687	"Visual_Different"	0	"right"	1.019	1.789	147.476	146.706
148.329	"Visual_Same"	1	"right"	1.331	1.788	150.117	149.66
150.87	"Visual_Same"	1	"right"	0.815	1.788	152.658	151.685
158.292	"Auditory_Same"	1	"right"	0.785	1.789	160.081	159.077
160.732	"Auditory_Lure"	0	"right"	0.622	1.789	162.521	161.354
163.374	"Auditory_Same"	1	"right"	0.677	1.788	165.162	164.051
165.798	"Auditory_Different"	1	"left"	0.678	1.788	167.586	166.476
168.389	"Auditory_Different"	0	"right"	0.595	1.788	170.177	168.984
170.729	"Auditory_Lure"	0	"right"	0.727	1.789	172.518	171.456
178.335	"Visual_Different"	1	"left"	0.596	1.789	180.124	178.931
180.776	"Visual_Lure"	1	"left"	0.855	1.789	182.565	181.631
183.367	"Visual_Different"	1	"left"	0.633	1.789	185.156	184
185.707	"Visual_Same"	1	"right"	0.842	1.789	187.496	186.549
188.298	"Visual_Same"	1	"right"	0.706	1.789	190.087	189.004
190.722	"Visual_Lure"	0	"right"	0.526	1.789	192.511	191.248
193.163	"Visual_Lure"	1	"left"	1.444	1.789	194.952	194.607
200.736	"Auditory_Lure"	1	"left"	1.033	1.788	202.524	201.769
203.427	"Auditory_Lure"	0	"right"	1.253	1.789	205.216	204.68
205.818	"Auditory_Different"	1	"left"	1.097	1.788	207.606	206.915
208.358	"Auditory_Same"	1	"right"	1.029	1.789	210.147	209.387
210.749	"Auditory_Lure"	0	"right"	0.816	1.772	212.521	211.565
218.389	"Visual_Lure"	1	"left"	0.731	1.788	220.177	219.12
220.929	"Visual_Lure"	1	"left"	0.953	1.789	222.718	221.882
223.32	"Visual_Same"	1	"right"	0.822	1.789	225.109	224.142
225.761	"Visual_Lure"	1	"left"	0.786	1.772	227.533	226.547
228.185	"Visual_Different"	1	"left"	0.794	1.788	229.973	228.979
235.941	"Auditory_Different"	1	"left"	0.932	1.789	237.73	236.873
238.281	"Auditory_Same"	1	"right"	1.005	1.789	240.07	239.286
240.722	"Auditory_Different"	1	"left"	0.772	1.789	242.511	241.494
243.297	"Auditory_Lure"	0	"right"	1.135	1.788	245.085	244.432
245.837	"Auditory_Lure"	0	"right"	1.187	1.789	247.626	247.024
248.278	"Auditory_Same"	1	"right"	1.005	1.789	250.067	249.283
255.934	"Visual_Same"	0	"left"	0.847	1.789	257.723	256.781
258.375	"Visual_Different"	1	"left"	0.778	1.789	260.164	259.153
260.715	"Visual_Same"	1	"right"	1.092	1.789	262.504	261.807
263.407	"Visual_Lure"	0	"right"	0.759	1.788	265.195	264.166
265.797	"Visual_Lure"	1	"left"	0.888	1.789	267.586	266.685
268.322	"Visual_Different"	1	"left"	0.835	1.788	270.11	269.157
270.712	"Visual_Different"	1	"left"	0.724	1.789	272.501	271.436
278.235	"Auditory_Same"	1	"right"	0.997	1.788	280.023	279.232
280.775	"Auditory_Lure"	1	"left"	1.356	1.789	282.564	282.131
283.367	"Auditory_Different"	1	"left"	1.725	1.788	285.155	285.092
285.908	"Auditory_Lure"	0	"right"	1.22	1.788	287.696	287.128
288.231	"Auditory_Lure"	0	"right"	1.106	1.789	290.02	289.337
290.872	"Auditory_Different"	1	"left"	0.708	1.789	292.661	291.58
293.313	"Auditory_Different"	1	"left"	0.916	1.789	295.102	294.229
300.735	"Visual_Lure"	1	"left"	0.679	1.789	302.524	301.414
303.427	"Visual_Lure"	1	"left"	0.98	1.788	305.215	304.407
305.817	"Visual_Different"	1	"left"	0.937	1.789	307.606	306.754
308.258	"Visual_Same"	1	"right"	0.826	1.789	310.047	309.084
310.832	"Visual_Lure"	1	"left"	0.711	1.789	312.621	311.543
318.338	"Auditory_Same"	1	"right"	0.874	1.789	320.127	319.212
320.729	"Auditory_Same"	1	"right"	0.717	1.788	322.517	321.446
323.42	"Auditory_Lure"	1	"left"	1.171	1.789	325.209	324.591
325.744	"Auditory_Different"	1	"left"	0.783	1.788	327.532	326.527
328.335	"Auditory_Same"	0	"left"	0.801	1.788	330.123	329.136
335.941	"Visual_Different"	1	"left"	0.786	1.788	337.729	336.727
338.231	"Visual_Different"	1	"left"	0.731	1.789	340.02	338.962
340.822	"Visual_Lure"	1	"left"	0.721	1.789	342.611	341.543
343.246	"Visual_Same"	1	"right"	1.125	1.789	345.035	344.371
345.837	"Visual_Same"	1	"right"	0.897	1.789	347.626	346.734
348.378	"Visual_Different"	1	"left"	0.603	1.789	350.167	348.981
355.834	"Auditory_Different"	1	"left"	0.786	1.788	357.622	356.62
358.224	"Auditory_Different"	0	"right"	0.851	1.789	360.013	359.075
360.815	"Auditory_Lure"	1	"left"	0.891	1.789	362.604	361.706
363.356	"Auditory_Different"	1	"left"	1.1	1.789	365.145	364.456
365.897	"Auditory_Same"	1	"right"	0.788	1.789	367.686	366.685
373.336	"Visual_Same"	1	"right"	1.118	1.789	375.125	374.454
375.777	"Visual_Same"	1	"right"	0.479	1.788	377.565	376.256
378.368	"Visual_Lure"	1	"left"	0.729	1.789	380.157	379.097
380.708	"Visual_Different"	1	"left"	0.622	1.789	382.497	381.33
383.232	"Visual_Same"	0	"left"	0.359	1.789	385.021	383.591
390.788	"Auditory_Lure"	1	"left"	0.854	1.789	392.577	391.642
393.229	"Auditory_Different"	1	"left"	1.173	1.789	395.018	394.402
395.92	"Auditory_Lure"	0	"right"	1.056	1.789	397.709	396.976
398.294	"Auditory_Same"	1	"right"	0.811	1.789	400.083	399.105
400.685	"Auditory_Same"	1	"right"	0.761	1.788	402.473	401.446
403.326	"Auditory_Different"	1	"left"	0.931	1.789	405.115	404.257
410.882	"Visual_Different"	1	"left"	1.037	1.789	412.671	411.919
413.222	"Visual_Different"	1	"left"	0.874	1.789	415.011	414.096
415.813	"Visual_Same"	1	"right"	0.914	1.789	417.602	416.727
418.405	"Visual_Lure"	1	"left"	0.986	1.788	420.193	419.391
420.745	"Visual_Different"	1	"left"	0.784	1.789	422.534	421.529
428.284	"Auditory_Lure"	0	"right"	0.974	1.789	430.073	429.258
430.925	"Auditory_Lure"	0	NA	NA	1.789	432.714	NA
433.266	"Auditory_Same"	1	"right"	0.97	1.788	435.054	434.236
435.807	"Auditory_Different"	1	"left"	0.961	1.788	437.595	436.768
438.331	"Auditory_Different"	1	"left"	0.996	1.789	440.12	439.327
440.671	"Auditory_Lure"	1	"left"	1.347	1.789	442.46	442.018
448.244	"Visual_Same"	1	"right"	1.085	1.789	450.033	449.329
450.818	"Visual_Same"	1	"right"	0.554	1.789	452.607	451.372
453.409	"Visual_Different"	1	"left"	0.678	1.789	455.198	454.087
455.85	"Visual_Same"	1	"right"	0.928	1.789	457.639	456.778
458.24	"Visual_Lure"	1	"left"	0.676	1.789	460.029	458.916
465.847	"Auditory_Lure"	0	"right"	0.906	1.772	467.619	466.753
468.421	"Auditory_Lure"	0	"right"	1.108	1.789	470.21	469.529
470.761	"Auditory_Same"	1	"right"	1.007	1.789	472.55	471.768
473.352	"Auditory_Lure"	0	"right"	0.638	1.789	475.141	473.99
475.693	"Auditory_Different"	0	NA	NA	1.788	477.481	NA
483.232	"Visual_Lure"	1	"left"	0.915	1.789	485.021	484.147
485.823	"Visual_Same"	0	"left"	0.472	1.789	487.612	486.295
488.364	"Visual_Lure"	1	"left"	0.746	1.789	490.153	489.11
490.905	"Visual_Different"	1	"left"	0.85	1.789	492.694	491.755
493.229	"Visual_Different"	1	"left"	0.703	1.788	495.017	493.932
495.87	"Visual_Same"	1	"right"	0.716	1.789	497.659	496.586
498.26	"Visual_Same"	1	"right"	0.683	1.789	500.049	498.943
505.833	"Auditory_Lure"	0	"right"	1.003	1.789	507.622	506.836
508.274	"Auditory_Different"	0	"right"	0.955	1.788	510.062	509.229
510.865	"Auditory_Same"	1	"right"	1.056	1.788	512.653	511.921
513.406	"Auditory_Different"	1	"left"	0.969	1.788	515.194	514.375
515.679	"Auditory_Different"	1	"left"	1.088	1.789	517.468	516.767
518.22	"Auditory_Same"	0	"left"	0.923	1.789	520.009	519.143
520.761	"Auditory_Same"	0	NA	NA	1.789	522.55	NA
528.384	"Visual_Same"	1	"right"	0.776	1.789	530.173	529.16
530.724	"Visual_Same"	1	"right"	0.437	1.789	532.513	531.161
533.315	"Visual_Different"	1	"left"	0.599	1.789	535.104	533.914
535.706	"Visual_Lure"	1	"left"	1.138	1.789	537.495	536.844
538.33	"Visual_Lure"	1	"left"	0.794	1.789	540.119	539.124
540.721	"Visual_Same"	1	"right"	0.723	1.789	542.51	541.444
548.243	"Auditory_Same"	1	"right"	1.19	1.789	550.032	549.433
550.918	"Auditory_Same"	1	"right"	0.697	1.789	552.707	551.615
553.359	"Auditory_Different"	1	"left"	1.026	1.788	555.147	554.385
555.699	"Auditory_Same"	1	"right"	0.677	1.789	557.488	556.376
558.391	"Auditory_Lure"	1	"left"	1.239	1.788	560.179	559.63
565.93	"Visual_Different"	1	"left"	0.675	1.788	567.718	566.605
568.27	"Visual_Different"	1	"left"	0.62	1.789	570.059	568.89
570.911	"Visual_Lure"	0	"right"	1.135	1.789	572.7	572.046
573.352	"Visual_Different"	1	"left"	0.908	1.789	575.141	574.26
575.793	"Visual_Same"	1	"right"	0.911	1.788	577.581	576.704
583.332	"Auditory_Lure"	1	"left"	1.533	1.789	585.121	584.865
585.773	"Auditory_Same"	1	"right"	0.928	1.788	587.561	586.701
588.364	"Auditory_Lure"	0	"right"	1.573	1.788	590.152	589.937
590.754	"Auditory_Different"	1	"left"	1.321	1.789	592.543	592.075
593.328	"Auditory_Different"	1	"left"	0.896	1.789	595.117	594.224
595.769	"Auditory_Same"	1	"right"	0.903	1.789	597.558	596.672
598.16	"Auditory_Same"	1	"right"	0.801	1.788	599.948	598.961
605.732	"Visual_Lure"	0	NA	NA	1.789	607.521	NA
608.374	"Visual_Lure"	1	"left"	0.723	1.788	610.162	609.097
610.714	"Visual_Same"	1	"right"	0.483	1.789	612.503	611.197
613.305	"Visual_Different"	1	"left"	0.797	1.789	615.094	614.102
615.879	"Visual_Different"	1	"left"	0.448	1.789	617.668	616.327
618.22	"Visual_Lure"	1	"left"	0.468	1.788	620.008	618.688
625.943	"Auditory_Same"	1	"right"	0.862	1.789	627.732	626.805
628.367	"Auditory_Different"	1	"left"	0.948	1.788	630.155	629.315
630.908	"Auditory_Same"	1	"right"	1.109	1.788	632.696	632.017
633.198	"Auditory_Lure"	0	"right"	1.326	1.789	634.987	634.524
635.789	"Auditory_Lure"	1	"left"	1.267	1.789	637.578	637.056
638.23	"Auditory_Different"	0	"right"	1.14	1.772	640.002	639.37
640.804	"Auditory_Different"	0	"right"	1.381	1.789	642.593	642.185
648.243	"Visual_Different"	1	"left"	0.778	1.789	650.032	649.021
650.918	"Visual_Same"	1	"right"	0.783	1.788	652.706	651.701
653.308	"Visual_Lure"	1	"left"	1.354	1.789	655.097	654.662
655.749	"Visual_Same"	1	"right"	0.874	1.788	657.537	656.623
658.34	"Visual_Same"	1	"right"	0.629	1.789	660.129	658.969
660.664	"Visual_Lure"	1	"left"	0.612	1.788	662.452	661.276
663.255	"Visual_Lure"	0	"right"	0.43	1.788	665.043	663.685
670.827	"Auditory_Different"	1	"left"	1.366	1.789	672.616	672.193
673.218	"Auditory_Different"	1	"left"	0.971	1.788	675.006	674.189
675.909	"Auditory_Same"	1	"right"	0.749	1.789	677.698	676.658
678.25	"Auditory_Lure"	1	"left"	1.315	1.788	680.038	679.565
680.69	"Auditory_Different"	0	"right"	0.874	1.789	682.479	681.564
688.28	"Visual_Same"	1	"right"	0.543	1.788	690.068	688.823
690.921	"Visual_Lure"	1	"left"	0.787	1.788	692.709	691.708
693.361	"Visual_Same"	1	"right"	0.667	1.789	695.15	694.028
695.752	"Visual_Different"	1	"left"	0.564	1.789	697.541	696.316
698.276	"Visual_Different"	1	"left"	1.057	1.789	700.065	699.333
700.817	"Visual_Lure"	1	"left"	1.006	1.789	702.606	701.823
708.34	"Auditory_Different"	1	"left"	0.791	1.788	710.128	709.131
710.931	"Auditory_Lure"	0	"right"	0.816	1.788	712.719	711.747
713.355	"Auditory_Different"	1	"left"	1.024	1.788	715.143	714.379
715.745	"Auditory_Same"	1	"right"	0.874	1.789	717.534	716.619
718.286	"Auditory_Same"	0	"left"	0.737	1.789	720.075	719.023
720.727	"Auditory_Lure"	1	"left"	1.343	1.788	722.515	722.07
723.151	"Auditory_Lure"	1	"left"	1.352	1.788	724.939	724.503
