"onset"	"trial_type"	"accuracy"	"button"	"response_time"	"duration"	"time_to_offset_alternative_onset"	"time_to_RT_alternative_onset_or_duration"
10.95	"Visual_Same"	1	"right"	0.881	1.788	12.738	11.831
13.323	"Visual_Same"	1	"right"	1.541	1.789	15.112	14.864
15.714	"Visual_Different"	1	"left"	1.255	1.789	17.503	16.969
18.355	"Visual_Lure"	1	"left"	1.041	1.789	20.144	19.396
20.746	"Visual_Lure"	1	"left"	0.901	1.788	22.534	21.647
23.186	"Visual_Same"	1	"right"	1.303	1.789	24.975	24.489
30.893	"Auditory_Same"	1	"right"	1.036	1.788	32.681	31.929
33.433	"Auditory_Same"	1	"right"	0.865	1.789	35.222	34.298
35.824	"Auditory_Different"	0	NA	NA	1.789	37.613	NA
38.248	"Auditory_Lure"	0	"right"	0.794	1.788	40.036	39.042
40.688	"Auditory_Lure"	1	"left"	1.158	1.789	42.477	41.846
43.229	"Auditory_Same"	1	"right"	1.041	1.789	45.018	44.27
50.835	"Visual_Different"	1	"left"	0.962	1.789	52.624	51.797
53.276	"Visual_Different"	1	"left"	1.204	1.789	55.065	54.48
55.917	"Visual_Lure"	1	"left"	1.021	1.789	57.706	56.938
58.358	"Visual_Different"	1	"left"	1.192	1.788	60.146	59.55
60.899	"Visual_Same"	1	"right"	0.875	1.788	62.687	61.774
68.237	"Auditory_Different"	1	"left"	0.896	1.789	70.026	69.133
70.929	"Auditory_Lure"	0	"right"	1.342	1.788	72.717	72.271
73.319	"Auditory_Different"	1	"left"	1.292	1.789	75.108	74.611
75.86	"Auditory_Same"	1	"right"	1.581	1.789	77.649	77.441
78.384	"Auditory_Same"	1	"right"	0.839	1.789	80.173	79.223
80.775	"Auditory_Lure"	1	"left"	1.03	1.788	82.563	81.805
83.215	"Auditory_Lure"	1	"left"	1.245	1.789	85.004	84.46
90.738	"Visual_Lure"	1	"left"	0.853	1.788	92.526	91.591
93.379	"Visual_Lure"	1	"left"	0.942	1.788	95.167	94.321
95.769	"Visual_Same"	1	"right"	0.804	1.789	97.558	96.573
98.31	"Visual_Different"	1	"left"	0.984	1.789	100.099	99.294
100.885	"Visual_Different"	1	"left"	0.776	1.788	102.673	101.661
103.275	"Visual_Lure"	1	"left"	0.933	1.789	105.064	104.208
110.898	"Auditory_Lure"	1	"left"	1.473	1.788	112.686	112.371
113.221	"Auditory_Different"	1	"left"	1.021	1.789	115.01	114.242
115.862	"Auditory_Same"	1	"right"	1.043	1.789	117.651	116.905
118.303	"Auditory_Different"	1	"left"	0.959	1.789	120.092	119.262
120.894	"Auditory_Different"	1	"left"	1.174	1.789	122.683	122.068
123.234	"Auditory_Same"	0	"left"	1.067	1.772	125.006	124.301
125.658	"Auditory_Same"	1	"right"	0.946	1.789	127.447	126.604
133.248	"Visual_Same"	1	"right"	1.173	1.772	135.02	134.421
135.872	"Visual_Different"	1	"left"	0.92	1.789	137.661	136.792
138.263	"Visual_Same"	1	"right"	1.121	1.788	140.051	139.384
140.703	"Visual_Lure"	1	"left"	0.833	1.789	142.492	141.536
143.294	"Visual_Lure"	1	"left"	0.834	1.789	145.083	144.128
145.818	"Visual_Different"	1	"left"	0.802	1.789	147.607	146.62
148.359	"Visual_Different"	1	"left"	0.782	1.789	150.148	149.141
155.781	"Auditory_Same"	1	"right"	1.05	1.789	157.57	156.831
158.222	"Auditory_Same"	1	"right"	0.953	1.789	160.011	159.175
160.813	"Auditory_Lure"	1	"left"	1.052	1.789	162.602	161.865
163.404	"Auditory_Different"	1	"left"	1.594	1.789	165.193	164.998
165.845	"Auditory_Same"	1	"right"	0.995	1.789	167.634	166.84
173.284	"Visual_Same"	1	"right"	0.936	1.788	175.072	174.22
175.925	"Visual_Same"	1	"right"	1.367	1.789	177.714	177.292
178.366	"Visual_Lure"	1	"left"	0.776	1.788	180.154	179.142
180.706	"Visual_Different"	1	"left"	0.885	1.788	182.494	181.591
183.23	"Visual_Same"	1	"right"	1.139	1.789	185.019	184.369
190.836	"Auditory_Lure"	1	"left"	1.4	1.789	192.625	192.236
193.277	"Auditory_Lure"	1	"left"	0.985	1.788	195.065	194.262
195.918	"Auditory_Same"	1	"right"	1.69	1.789	197.707	197.608
198.208	"Auditory_Different"	1	"left"	1.098	1.789	199.997	199.306
200.832	"Auditory_Different"	1	"left"	1.119	1.789	202.621	201.951
203.273	"Auditory_Lure"	1	"left"	1.337	1.789	205.062	204.61
210.846	"Visual_Lure"	1	"left"	0.937	1.788	212.634	211.783
213.27	"Visual_Same"	1	"right"	1.227	1.788	215.058	214.497
215.911	"Visual_Lure"	1	"left"	0.825	1.788	217.699	216.736
218.301	"Visual_Different"	1	"left"	0.662	1.789	220.09	218.963
220.842	"Visual_Different"	1	"left"	0.723	1.789	222.631	221.565
223.182	"Visual_Same"	1	"right"	0.953	1.789	224.971	224.135
225.757	"Visual_Same"	1	"right"	0.869	1.788	227.545	226.626
233.296	"Auditory_Different"	1	"left"	1.072	1.772	235.068	234.368
235.92	"Auditory_Different"	1	"left"	1.087	1.789	237.709	237.007
238.211	"Auditory_Same"	1	"right"	1.022	1.788	239.999	239.233
240.852	"Auditory_Lure"	1	"left"	1.241	1.788	242.64	242.093
243.393	"Auditory_Different"	1	"left"	0.799	1.788	245.181	244.192
250.731	"Visual_Lure"	1	"left"	0.654	1.789	252.52	251.385
253.272	"Visual_Different"	1	"left"	0.736	1.789	255.061	254.008
255.863	"Visual_Lure"	1	"left"	0.975	1.789	257.652	256.838
258.404	"Visual_Same"	1	"right"	0.717	1.789	260.193	259.121
260.778	"Visual_Same"	1	"right"	0.694	1.789	262.567	261.472
263.319	"Visual_Different"	1	"left"	1.007	1.788	265.107	264.326
270.791	"Auditory_Lure"	1	"left"	1.435	1.789	272.58	272.226
273.232	"Auditory_Lure"	1	"left"	0.979	1.772	275.004	274.211
275.856	"Auditory_Same"	1	"right"	0.998	1.789	277.645	276.854
278.297	"Auditory_Lure"	1	"left"	0.923	1.788	280.085	279.22
280.838	"Auditory_Different"	1	"left"	1.102	1.788	282.626	281.94
288.444	"Visual_Same"	1	"right"	1.002	1.788	290.232	289.446
290.717	"Visual_Same"	1	"right"	0.687	1.789	292.506	291.404
293.258	"Visual_Different"	1	"left"	0.674	1.789	295.047	293.932
295.699	"Visual_Same"	1	"right"	0.802	1.788	297.487	296.501
298.34	"Visual_Lure"	1	"left"	0.875	1.789	300.129	299.215
305.779	"Auditory_Different"	1	"left"	0.748	1.788	307.567	306.527
308.32	"Auditory_Different"	1	"left"	1.025	1.788	310.108	309.345
310.911	"Auditory_Lure"	1	"left"	0.811	1.788	312.699	311.722
313.201	"Auditory_Same"	1	"right"	0.878	1.788	314.989	314.079
315.892	"Auditory_Same"	1	"right"	0.875	1.789	317.681	316.767
318.316	"Auditory_Different"	1	"left"	1.148	1.789	320.105	319.464
325.788	"Visual_Same"	1	"right"	0.862	1.789	327.577	326.65
328.43	"Visual_Lure"	1	"left"	0.81	1.788	330.218	329.24
330.803	"Visual_Same"	1	"right"	0.82	1.789	332.592	331.623
333.244	"Visual_Different"	1	"left"	0.635	1.789	335.033	333.879
335.835	"Visual_Different"	1	"left"	0.823	1.789	337.624	336.658
338.276	"Visual_Lure"	1	"left"	0.743	1.788	340.064	339.019
345.831	"Auditory_Different"	1	"left"	1.689	1.789	347.62	347.52
348.222	"Auditory_Same"	1	"right"	1.083	1.789	350.011	349.305
350.763	"Auditory_Different"	1	"left"	0.802	1.788	352.551	351.565
353.203	"Auditory_Lure"	1	"left"	1.016	1.789	354.992	354.219
355.878	"Auditory_Lure"	1	"left"	0.855	1.789	357.667	356.733
358.218	"Auditory_Same"	1	"right"	0.955	1.789	360.007	359.173
365.941	"Visual_Different"	1	"left"	0.814	1.789	367.73	366.755
368.215	"Visual_Different"	1	"left"	0.933	1.789	370.004	369.148
370.756	"Visual_Same"	1	"right"	0.627	1.788	372.544	371.383
373.397	"Visual_Lure"	1	"left"	0.766	1.789	375.186	374.163
375.838	"Visual_Different"	1	"left"	0.563	1.788	377.626	376.401
383.377	"Auditory_Same"	1	"right"	1.103	1.788	385.165	384.48
385.817	"Auditory_Lure"	1	"left"	0.85	1.789	387.606	386.667
388.258	"Auditory_Same"	1	"right"	0.788	1.789	390.047	389.046
390.799	"Auditory_Different"	1	"left"	0.793	1.789	392.588	391.592
393.39	"Auditory_Different"	1	"left"	0.783	1.789	395.179	394.173
395.663	"Auditory_Lure"	1	"left"	0.862	1.789	397.452	396.525
403.336	"Visual_Same"	1	"right"	0.778	1.789	405.125	404.114
405.727	"Visual_Lure"	1	"left"	0.636	1.788	407.515	406.363
408.401	"Visual_Different"	1	"left"	0.608	1.789	410.19	409.009
410.842	"Visual_Lure"	1	"left"	0.733	1.789	412.631	411.575
413.182	"Visual_Lure"	1	"left"	1.132	1.789	414.971	414.314
415.773	"Visual_Different"	1	"left"	0.705	1.789	417.562	416.478
418.214	"Visual_Different"	1	"left"	0.469	1.789	420.003	418.683
425.887	"Auditory_Different"	1	"left"	1.127	1.788	427.675	427.014
428.428	"Auditory_Different"	1	"left"	1.4	1.788	430.216	429.828
430.701	"Auditory_Lure"	1	"left"	1.295	1.789	432.49	431.996
433.292	"Auditory_Different"	1	"left"	1.056	1.789	435.081	434.348
435.733	"Auditory_Same"	0	"left"	0.954	1.788	437.521	436.687
443.389	"Visual_Different"	1	"left"	0.987	1.789	445.178	444.376
445.713	"Visual_Same"	1	"right"	0.653	1.788	447.501	446.366
448.304	"Visual_Lure"	1	"left"	0.611	1.788	450.092	448.915
450.895	"Visual_Same"	1	"right"	0.553	1.788	452.683	451.448
453.235	"Visual_Same"	1	"right"	0.903	1.789	455.024	454.138
455.826	"Visual_Lure"	1	"left"	0.977	1.789	457.615	456.803
458.35	"Visual_Lure"	1	"left"	0.84	1.789	460.139	459.19
465.889	"Auditory_Different"	1	"left"	1.412	1.789	467.678	467.301
468.263	"Auditory_Same"	1	"right"	0.797	1.789	470.052	469.06
470.904	"Auditory_Lure"	1	"left"	1.175	1.789	472.693	472.079
473.345	"Auditory_Same"	0	"left"	1.412	1.789	475.134	474.757
475.685	"Auditory_Same"	1	"right"	0.884	1.789	477.474	476.569
478.26	"Auditory_Lure"	1	"left"	0.931	1.788	480.048	479.191
480.8	"Auditory_Lure"	1	"left"	1.025	1.789	482.589	481.825
488.34	"Visual_Different"	1	"left"	0.903	1.772	490.112	489.243
490.713	"Visual_Lure"	1	"left"	1.771	1.789	492.502	492.484
493.254	"Visual_Different"	1	"left"	0.721	1.789	495.043	493.975
495.795	"Visual_Same"	1	"right"	1.022	1.789	497.584	496.817
498.236	"Visual_Same"	1	"right"	0.698	1.788	500.024	498.934
500.827	"Visual_Lure"	1	"left"	0.662	1.772	502.599	501.489
503.351	"Visual_Lure"	1	"left"	0.696	1.789	505.14	504.047
510.773	"Auditory_Same"	1	"right"	1.008	1.789	512.562	511.781
513.314	"Auditory_Lure"	1	"left"	1.011	1.789	515.103	514.325
515.705	"Auditory_Different"	1	"left"	0.813	1.788	517.493	516.518
518.396	"Auditory_Lure"	1	"left"	0.927	1.789	520.185	519.323
520.837	"Auditory_Lure"	1	"left"	1.034	1.788	522.625	521.871
523.26	"Auditory_Different"	1	"left"	0.669	1.789	525.049	523.929
525.851	"Auditory_Different"	1	"left"	1.07	1.789	527.64	526.921
533.223	"Visual_Lure"	1	"left"	1.308	1.789	535.012	534.531
535.764	"Visual_Lure"	1	"left"	0.805	1.789	537.553	536.569
538.205	"Visual_Same"	1	"right"	0.739	1.789	539.994	538.944
540.846	"Visual_Lure"	1	"left"	0.639	1.789	542.635	541.485
543.37	"Visual_Different"	1	"left"	1.019	1.789	545.159	544.389
550.726	"Auditory_Same"	1	"right"	1.173	1.788	552.514	551.899
553.267	"Auditory_Different"	1	"left"	1.539	1.788	555.055	554.806
555.908	"Auditory_Same"	1	"right"	0.962	1.788	557.696	556.87
558.248	"Auditory_Lure"	1	"left"	1.628	1.789	560.037	559.876
560.672	"Auditory_Lure"	1	"left"	0.786	1.789	562.461	561.458
563.263	"Auditory_Different"	1	"left"	0.836	1.789	565.052	564.099
565.804	"Auditory_Different"	1	"left"	0.894	1.789	567.593	566.698
573.326	"Visual_Different"	1	"left"	0.594	1.789	575.115	573.92
575.717	"Visual_Same"	1	"right"	0.881	1.788	577.505	576.598
578.408	"Visual_Different"	1	"left"	0.894	1.789	580.197	579.302
580.799	"Visual_Lure"	1	"left"	1.31	1.788	582.587	582.109
583.222	"Visual_Lure"	1	"left"	1.539	1.789	585.011	584.761
585.814	"Visual_Same"	1	"right"	0.91	1.788	587.602	586.724
593.336	"Auditory_Lure"	0	NA	NA	1.789	595.125	NA
595.91	"Auditory_Same"	1	"right"	1.085	1.789	597.699	596.995
598.351	"Auditory_Lure"	1	"left"	1.035	1.789	600.14	599.386
600.741	"Auditory_Different"	1	"left"	0.941	1.789	602.53	601.682
603.182	"Auditory_Different"	1	"left"	0.877	1.789	604.971	604.059
605.773	"Auditory_Same"	1	"right"	0.848	1.789	607.562	606.621
608.197	"Auditory_Same"	1	"right"	1.612	1.789	609.986	609.809
615.836	"Visual_Lure"	1	"left"	0.66	1.789	617.625	616.496
618.26	"Visual_Different"	1	"left"	0.729	1.789	620.049	618.989
620.851	"Visual_Same"	1	"right"	0.757	1.789	622.64	621.608
623.192	"Visual_Different"	1	"left"	0.913	1.788	624.98	624.105
625.883	"Visual_Different"	1	"left"	0.723	1.789	627.672	626.606
628.207	"Visual_Same"	1	"right"	0.82	1.788	629.995	629.027
630.747	"Visual_Same"	1	"right"	0.896	1.789	632.536	631.643
638.22	"Auditory_Lure"	1	"left"	0.927	1.788	640.008	639.147
640.861	"Auditory_Different"	1	"left"	1.341	1.789	642.65	642.202
643.402	"Auditory_Lure"	1	"left"	1.677	1.789	645.191	645.079
645.842	"Auditory_Same"	1	"right"	1.001	1.789	647.631	646.843
648.233	"Auditory_Same"	1	"right"	0.808	1.772	650.005	649.041
650.857	"Auditory_Different"	1	"left"	0.908	1.789	652.646	651.765
658.229	"Visual_Different"	1	"left"	0.675	1.789	660.018	658.904
660.871	"Visual_Different"	1	"left"	0.639	1.788	662.659	661.51
663.395	"Visual_Lure"	1	"left"	0.9	1.788	665.183	664.295
665.785	"Visual_Same"	1	"right"	0.663	1.789	667.574	666.448
668.376	"Visual_Same"	1	"right"	0.716	1.789	670.165	669.092
670.817	"Visual_Different"	1	"left"	0.902	1.789	672.606	671.719
678.323	"Auditory_Same"	1	"right"	0.884	1.788	680.111	679.207
680.713	"Auditory_Same"	1	"right"	0.655	1.789	682.502	681.368
683.304	"Auditory_Different"	1	"left"	0.766	1.789	685.093	684.07
685.745	"Auditory_Same"	1	"right"	0.834	1.788	687.533	686.579
688.169	"Auditory_Lure"	1	"left"	1.276	1.788	689.957	689.445
695.775	"Visual_Lure"	1	"left"	0.834	1.788	697.563	696.609
698.215	"Visual_Lure"	1	"left"	0.675	1.789	700.004	698.89
700.907	"Visual_Different"	1	"left"	0.638	1.788	702.695	701.545
703.23	"Visual_Same"	1	"right"	0.769	1.789	705.019	703.999
705.821	"Visual_Lure"	1	"left"	0.67	1.789	707.61	706.491
713.427	"Auditory_Lure"	1	"left"	0.959	1.789	715.216	714.386
715.868	"Auditory_Lure"	1	"left"	1.087	1.789	717.657	716.955
718.242	"Auditory_Different"	1	"left"	1.06	1.788	720.03	719.302
720.783	"Auditory_Same"	1	"right"	0.879	1.788	722.571	721.662
723.323	"Auditory_Lure"	1	"left"	0.985	1.789	725.112	724.308
