onset	duration	trial_type	accuracy	button	response_time	time_to_offset_alternative_onset	time_to_RT_alternative_onset_or_duration
10.95	1.788	Visual_Same	1	right	0.881	12.738	11.831
13.323	1.789	Visual_Same	1	right	1.541	15.112	14.864
15.714	1.789	Visual_Different	1	left	1.255	17.503	16.969
18.355	1.789	Visual_Lure	1	left	1.041	20.144	19.396
20.746	1.788	Visual_Lure	1	left	0.901	22.534	21.647
23.186	1.789	Visual_Same	1	right	1.303	24.975	24.489
30.893	1.788	Auditory_Same	1	right	1.036	32.681	31.929
33.433	1.789	Auditory_Same	1	right	0.865	35.222	34.298
35.824	1.789	Auditory_Different	0	NA	NA	37.613	NA
38.248	1.788	Auditory_Lure	0	right	0.794	40.036	39.042
40.688	1.789	Auditory_Lure	1	left	1.158	42.477	41.846
43.229	1.789	Auditory_Same	1	right	1.041	45.018	44.27
50.835	1.789	Visual_Different	1	left	0.962	52.624	51.797
53.276	1.789	Visual_Different	1	left	1.204	55.065	54.48
55.917	1.789	Visual_Lure	1	left	1.021	57.706	56.938
58.358	1.788	Visual_Different	1	left	1.192	60.146	59.55
60.899	1.788	Visual_Same	1	right	0.875	62.687	61.774
68.237	1.789	Auditory_Different	1	left	0.896	70.026	69.133
70.929	1.788	Auditory_Lure	0	right	1.342	72.717	72.271
73.319	1.789	Auditory_Different	1	left	1.292	75.108	74.611
75.86	1.789	Auditory_Same	1	right	1.581	77.649	77.441
78.384	1.789	Auditory_Same	1	right	0.839	80.173	79.223
80.775	1.788	Auditory_Lure	1	left	1.03	82.563	81.805
83.215	1.789	Auditory_Lure	1	left	1.245	85.004	84.46
90.738	1.788	Visual_Lure	1	left	0.853	92.526	91.591
93.379	1.788	Visual_Lure	1	left	0.942	95.167	94.321
95.769	1.789	Visual_Same	1	right	0.804	97.558	96.573
98.31	1.789	Visual_Different	1	left	0.984	100.099	99.294
100.885	1.788	Visual_Different	1	left	0.776	102.673	101.661
103.275	1.789	Visual_Lure	1	left	0.933	105.064	104.208
110.898	1.788	Auditory_Lure	1	left	1.473	112.686	112.371
113.221	1.789	Auditory_Different	1	left	1.021	115.01	114.242
115.862	1.789	Auditory_Same	1	right	1.043	117.651	116.905
118.303	1.789	Auditory_Different	1	left	0.959	120.092	119.262
120.894	1.789	Auditory_Different	1	left	1.174	122.683	122.068
123.234	1.772	Auditory_Same	0	left	1.067	125.006	124.301
125.658	1.789	Auditory_Same	1	right	0.946	127.447	126.604
133.248	1.772	Visual_Same	1	right	1.173	135.02	134.421
135.872	1.789	Visual_Different	1	left	0.92	137.661	136.792
138.263	1.788	Visual_Same	1	right	1.121	140.051	139.384
140.703	1.789	Visual_Lure	1	left	0.833	142.492	141.536
143.294	1.789	Visual_Lure	1	left	0.834	145.083	144.128
145.818	1.789	Visual_Different	1	left	0.802	147.607	146.62
148.359	1.789	Visual_Different	1	left	0.782	150.148	149.141
155.781	1.789	Auditory_Same	1	right	1.05	157.57	156.831
158.222	1.789	Auditory_Same	1	right	0.953	160.011	159.175
160.813	1.789	Auditory_Lure	1	left	1.052	162.602	161.865
163.404	1.789	Auditory_Different	1	left	1.594	165.193	164.998
165.845	1.789	Auditory_Same	1	right	0.995	167.634	166.84
173.284	1.788	Visual_Same	1	right	0.936	175.072	174.22
175.925	1.789	Visual_Same	1	right	1.367	177.714	177.292
178.366	1.788	Visual_Lure	1	left	0.776	180.154	179.142
180.706	1.788	Visual_Different	1	left	0.885	182.494	181.591
183.23	1.789	Visual_Same	1	right	1.139	185.019	184.369
190.836	1.789	Auditory_Lure	1	left	1.4	192.625	192.236
193.277	1.788	Auditory_Lure	1	left	0.985	195.065	194.262
195.918	1.789	Auditory_Same	1	right	1.69	197.707	197.608
198.208	1.789	Auditory_Different	1	left	1.098	199.997	199.306
200.832	1.789	Auditory_Different	1	left	1.119	202.621	201.951
203.273	1.789	Auditory_Lure	1	left	1.337	205.062	204.61
210.846	1.788	Visual_Lure	1	left	0.937	212.634	211.783
213.27	1.788	Visual_Same	1	right	1.227	215.058	214.497
215.911	1.788	Visual_Lure	1	left	0.825	217.699	216.736
218.301	1.789	Visual_Different	1	left	0.662	220.09	218.963
220.842	1.789	Visual_Different	1	left	0.723	222.631	221.565
223.182	1.789	Visual_Same	1	right	0.953	224.971	224.135
225.757	1.788	Visual_Same	1	right	0.869	227.545	226.626
233.296	1.772	Auditory_Different	1	left	1.072	235.068	234.368
235.92	1.789	Auditory_Different	1	left	1.087	237.709	237.007
238.211	1.788	Auditory_Same	1	right	1.022	239.999	239.233
240.852	1.788	Auditory_Lure	1	left	1.241	242.64	242.093
243.393	1.788	Auditory_Different	1	left	0.799	245.181	244.192
250.731	1.789	Visual_Lure	1	left	0.654	252.52	251.385
253.272	1.789	Visual_Different	1	left	0.736	255.061	254.008
255.863	1.789	Visual_Lure	1	left	0.975	257.652	256.838
258.404	1.789	Visual_Same	1	right	0.717	260.193	259.121
260.778	1.789	Visual_Same	1	right	0.694	262.567	261.472
263.319	1.788	Visual_Different	1	left	1.007	265.107	264.326
270.791	1.789	Auditory_Lure	1	left	1.435	272.58	272.226
273.232	1.772	Auditory_Lure	1	left	0.979	275.004	274.211
275.856	1.789	Auditory_Same	1	right	0.998	277.645	276.854
278.297	1.788	Auditory_Lure	1	left	0.923	280.085	279.22
280.838	1.788	Auditory_Different	1	left	1.102	282.626	281.94
288.444	1.788	Visual_Same	1	right	1.002	290.232	289.446
290.717	1.789	Visual_Same	1	right	0.687	292.506	291.404
293.258	1.789	Visual_Different	1	left	0.674	295.047	293.932
295.699	1.788	Visual_Same	1	right	0.802	297.487	296.501
298.34	1.789	Visual_Lure	1	left	0.875	300.129	299.215
305.779	1.788	Auditory_Different	1	left	0.748	307.567	306.527
308.32	1.788	Auditory_Different	1	left	1.025	310.108	309.345
310.911	1.788	Auditory_Lure	1	left	0.811	312.699	311.722
313.201	1.788	Auditory_Same	1	right	0.878	314.989	314.079
315.892	1.789	Auditory_Same	1	right	0.875	317.681	316.767
318.316	1.789	Auditory_Different	1	left	1.148	320.105	319.464
325.788	1.789	Visual_Same	1	right	0.862	327.577	326.65
328.43	1.788	Visual_Lure	1	left	0.81	330.218	329.24
330.803	1.789	Visual_Same	1	right	0.82	332.592	331.623
333.244	1.789	Visual_Different	1	left	0.635	335.033	333.879
335.835	1.789	Visual_Different	1	left	0.823	337.624	336.658
338.276	1.788	Visual_Lure	1	left	0.743	340.064	339.019
345.831	1.789	Auditory_Different	1	left	1.689	347.62	347.52
348.222	1.789	Auditory_Same	1	right	1.083	350.011	349.305
350.763	1.788	Auditory_Different	1	left	0.802	352.551	351.565
353.203	1.789	Auditory_Lure	1	left	1.016	354.992	354.219
355.878	1.789	Auditory_Lure	1	left	0.855	357.667	356.733
358.218	1.789	Auditory_Same	1	right	0.955	360.007	359.173
365.941	1.789	Visual_Different	1	left	0.814	367.73	366.755
368.215	1.789	Visual_Different	1	left	0.933	370.004	369.148
370.756	1.788	Visual_Same	1	right	0.627	372.544	371.383
373.397	1.789	Visual_Lure	1	left	0.766	375.186	374.163
375.838	1.788	Visual_Different	1	left	0.563	377.626	376.401
383.377	1.788	Auditory_Same	1	right	1.103	385.165	384.48
385.817	1.789	Auditory_Lure	1	left	0.85	387.606	386.667
388.258	1.789	Auditory_Same	1	right	0.788	390.047	389.046
390.799	1.789	Auditory_Different	1	left	0.793	392.588	391.592
393.39	1.789	Auditory_Different	1	left	0.783	395.179	394.173
395.663	1.789	Auditory_Lure	1	left	0.862	397.452	396.525
403.336	1.789	Visual_Same	1	right	0.778	405.125	404.114
405.727	1.788	Visual_Lure	1	left	0.636	407.515	406.363
408.401	1.789	Visual_Different	1	left	0.608	410.19	409.009
410.842	1.789	Visual_Lure	1	left	0.733	412.631	411.575
413.182	1.789	Visual_Lure	1	left	1.132	414.971	414.314
415.773	1.789	Visual_Different	1	left	0.705	417.562	416.478
418.214	1.789	Visual_Different	1	left	0.469	420.003	418.683
425.887	1.788	Auditory_Different	1	left	1.127	427.675	427.014
428.428	1.788	Auditory_Different	1	left	1.4	430.216	429.828
430.701	1.789	Auditory_Lure	1	left	1.295	432.49	431.996
433.292	1.789	Auditory_Different	1	left	1.056	435.081	434.348
435.733	1.788	Auditory_Same	0	left	0.954	437.521	436.687
443.389	1.789	Visual_Different	1	left	0.987	445.178	444.376
445.713	1.788	Visual_Same	1	right	0.653	447.501	446.366
448.304	1.788	Visual_Lure	1	left	0.611	450.092	448.915
450.895	1.788	Visual_Same	1	right	0.553	452.683	451.448
453.235	1.789	Visual_Same	1	right	0.903	455.024	454.138
455.826	1.789	Visual_Lure	1	left	0.977	457.615	456.803
458.35	1.789	Visual_Lure	1	left	0.84	460.139	459.19
465.889	1.789	Auditory_Different	1	left	1.412	467.678	467.301
468.263	1.789	Auditory_Same	1	right	0.797	470.052	469.06
470.904	1.789	Auditory_Lure	1	left	1.175	472.693	472.079
473.345	1.789	Auditory_Same	0	left	1.412	475.134	474.757
475.685	1.789	Auditory_Same	1	right	0.884	477.474	476.569
478.26	1.788	Auditory_Lure	1	left	0.931	480.048	479.191
480.8	1.789	Auditory_Lure	1	left	1.025	482.589	481.825
488.34	1.772	Visual_Different	1	left	0.903	490.112	489.243
490.713	1.789	Visual_Lure	1	left	1.771	492.502	492.484
493.254	1.789	Visual_Different	1	left	0.721	495.043	493.975
495.795	1.789	Visual_Same	1	right	1.022	497.584	496.817
498.236	1.788	Visual_Same	1	right	0.698	500.024	498.934
500.827	1.772	Visual_Lure	1	left	0.662	502.599	501.489
503.351	1.789	Visual_Lure	1	left	0.696	505.14	504.047
510.773	1.789	Auditory_Same	1	right	1.008	512.562	511.781
513.314	1.789	Auditory_Lure	1	left	1.011	515.103	514.325
515.705	1.788	Auditory_Different	1	left	0.813	517.493	516.518
518.396	1.789	Auditory_Lure	1	left	0.927	520.185	519.323
520.837	1.788	Auditory_Lure	1	left	1.034	522.625	521.871
523.26	1.789	Auditory_Different	1	left	0.669	525.049	523.929
525.851	1.789	Auditory_Different	1	left	1.07	527.64	526.921
533.223	1.789	Visual_Lure	1	left	1.308	535.012	534.531
535.764	1.789	Visual_Lure	1	left	0.805	537.553	536.569
538.205	1.789	Visual_Same	1	right	0.739	539.994	538.944
540.846	1.789	Visual_Lure	1	left	0.639	542.635	541.485
543.37	1.789	Visual_Different	1	left	1.019	545.159	544.389
550.726	1.788	Auditory_Same	1	right	1.173	552.514	551.899
553.267	1.788	Auditory_Different	1	left	1.539	555.055	554.806
555.908	1.788	Auditory_Same	1	right	0.962	557.696	556.87
558.248	1.789	Auditory_Lure	1	left	1.628	560.037	559.876
560.672	1.789	Auditory_Lure	1	left	0.786	562.461	561.458
563.263	1.789	Auditory_Different	1	left	0.836	565.052	564.099
565.804	1.789	Auditory_Different	1	left	0.894	567.593	566.698
573.326	1.789	Visual_Different	1	left	0.594	575.115	573.92
575.717	1.788	Visual_Same	1	right	0.881	577.505	576.598
578.408	1.789	Visual_Different	1	left	0.894	580.197	579.302
580.799	1.788	Visual_Lure	1	left	1.31	582.587	582.109
583.222	1.789	Visual_Lure	1	left	1.539	585.011	584.761
585.814	1.788	Visual_Same	1	right	0.91	587.602	586.724
593.336	1.789	Auditory_Lure	0	NA	NA	595.125	NA
595.91	1.789	Auditory_Same	1	right	1.085	597.699	596.995
598.351	1.789	Auditory_Lure	1	left	1.035	600.14	599.386
600.741	1.789	Auditory_Different	1	left	0.941	602.53	601.682
603.182	1.789	Auditory_Different	1	left	0.877	604.971	604.059
605.773	1.789	Auditory_Same	1	right	0.848	607.562	606.621
608.197	1.789	Auditory_Same	1	right	1.612	609.986	609.809
615.836	1.789	Visual_Lure	1	left	0.66	617.625	616.496
618.26	1.789	Visual_Different	1	left	0.729	620.049	618.989
620.851	1.789	Visual_Same	1	right	0.757	622.64	621.608
623.192	1.788	Visual_Different	1	left	0.913	624.98	624.105
625.883	1.789	Visual_Different	1	left	0.723	627.672	626.606
628.207	1.788	Visual_Same	1	right	0.82	629.995	629.027
630.747	1.789	Visual_Same	1	right	0.896	632.536	631.643
638.22	1.788	Auditory_Lure	1	left	0.927	640.008	639.147
640.861	1.789	Auditory_Different	1	left	1.341	642.65	642.202
643.402	1.789	Auditory_Lure	1	left	1.677	645.191	645.079
645.842	1.789	Auditory_Same	1	right	1.001	647.631	646.843
648.233	1.772	Auditory_Same	1	right	0.808	650.005	649.041
650.857	1.789	Auditory_Different	1	left	0.908	652.646	651.765
658.229	1.789	Visual_Different	1	left	0.675	660.018	658.904
660.871	1.788	Visual_Different	1	left	0.639	662.659	661.51
663.395	1.788	Visual_Lure	1	left	0.9	665.183	664.295
665.785	1.789	Visual_Same	1	right	0.663	667.574	666.448
668.376	1.789	Visual_Same	1	right	0.716	670.165	669.092
670.817	1.789	Visual_Different	1	left	0.902	672.606	671.719
678.323	1.788	Auditory_Same	1	right	0.884	680.111	679.207
680.713	1.789	Auditory_Same	1	right	0.655	682.502	681.368
683.304	1.789	Auditory_Different	1	left	0.766	685.093	684.07
685.745	1.788	Auditory_Same	1	right	0.834	687.533	686.579
688.169	1.788	Auditory_Lure	1	left	1.276	689.957	689.445
695.775	1.788	Visual_Lure	1	left	0.834	697.563	696.609
698.215	1.789	Visual_Lure	1	left	0.675	700.004	698.89
700.907	1.788	Visual_Different	1	left	0.638	702.695	701.545
703.23	1.789	Visual_Same	1	right	0.769	705.019	703.999
705.821	1.789	Visual_Lure	1	left	0.67	707.61	706.491
713.427	1.789	Auditory_Lure	1	left	0.959	715.216	714.386
715.868	1.789	Auditory_Lure	1	left	1.087	717.657	716.955
718.242	1.788	Auditory_Different	1	left	1.06	720.03	719.302
720.783	1.788	Auditory_Same	1	right	0.879	722.571	721.662
723.323	1.789	Auditory_Lure	1	left	0.985	725.112	724.308
