onset	duration	trial_type	accuracy	button	response_time	time_to_offset_alternative_onset	time_to_RT_alternative_onset_or_duration
10.937	1.789	Visual_Same	1	right	0.954	12.726	11.891
13.378	1.788	Visual_Same	1	right	0.782	15.166	14.16
15.768	1.789	Visual_Different	1	left	1.009	17.557	16.777
18.309	1.789	Visual_Same	1	right	1.548	20.098	19.857
20.7	1.788	Visual_Lure	1	left	0.766	22.488	21.466
28.439	1.789	Auditory_Same	0	NA	NA	30.228	NA
30.78	1.788	Auditory_Same	1	right	0.422	32.568	31.202
33.22	1.789	Auditory_Different	1	left	1.635	35.009	34.855
35.861	1.789	Auditory_Lure	0	right	1.314	37.65	37.175
38.285	1.789	Auditory_Lure	1	left	1.169	40.074	39.454
40.676	1.789	Auditory_Same	1	right	1.094	42.465	41.77
48.449	1.789	Visual_Lure	1	left	0.783	50.238	49.232
50.823	1.789	Visual_Same	1	right	0.69	52.612	51.513
53.213	1.789	Visual_Lure	1	left	0.714	55.002	53.927
55.754	1.789	Visual_Different	1	left	0.602	57.543	56.356
58.345	1.789	Visual_Different	1	left	0.794	60.134	59.139
60.886	1.789	Visual_Same	1	right	0.738	62.675	61.624
63.16	1.788	Visual_Same	1	right	0.837	64.948	63.997
70.849	1.789	Auditory_Different	1	left	0.914	72.638	71.763
73.374	1.788	Auditory_Same	1	right	1.198	75.162	74.572
75.915	1.788	Auditory_Lure	1	left	0.932	77.703	76.847
78.255	1.789	Auditory_Same	1	right	1.313	80.044	79.568
80.896	1.789	Auditory_Same	1	right	1.229	82.685	82.125
83.337	1.788	Auditory_Lure	1	left	1.167	85.125	84.504
85.761	1.788	Auditory_Lure	1	left	1.233	87.549	86.994
93.4	1.789	Visual_Different	1	left	0.578	95.189	93.978
95.774	1.789	Visual_Lure	1	left	0.869	97.563	96.643
98.315	1.788	Visual_Different	1	left	0.719	100.103	99.034
100.856	1.788	Visual_Same	1	right	0.805	102.644	101.661
103.196	1.789	Visual_Same	1	right	0.702	104.985	103.898
105.72	1.789	Visual_Lure	1	left	0.559	107.509	106.279
108.261	1.789	Visual_Lure	1	left	0.773	110.05	109.034
115.734	1.788	Auditory_Lure	1	left	0.89	117.522	116.624
118.274	1.789	Auditory_Different	1	left	1.519	120.063	119.793
120.916	1.788	Auditory_Lure	1	left	0.973	122.704	121.889
123.306	1.789	Auditory_Same	1	right	1.151	125.095	124.457
125.747	1.788	Auditory_Same	1	right	1.34	127.535	127.087
128.171	1.788	Auditory_Different	1	left	1.353	129.959	129.524
135.944	1.789	Visual_Same	1	right	0.663	137.733	136.607
138.384	1.789	Visual_Same	1	right	0.535	140.173	138.919
140.909	1.788	Visual_Lure	1	left	0.613	142.697	141.522
143.199	1.789	Visual_Different	1	left	0.707	144.988	143.906
145.74	1.789	Visual_Same	1	right	0.666	147.529	146.406
153.396	1.789	Auditory_Different	1	left	0.964	155.185	154.36
155.937	1.772	Auditory_Same	1	right	0.845	157.709	156.782
158.361	1.789	Auditory_Different	1	left	0.803	160.15	159.164
160.751	1.789	Auditory_Lure	1	left	0.959	162.54	161.71
163.192	1.789	Auditory_Lure	1	left	1.237	164.981	164.429
165.783	1.789	Auditory_Same	1	right	0.823	167.572	166.606
173.339	1.789	Visual_Same	1	right	0.685	175.128	174.024
175.78	1.788	Visual_Lure	1	left	0.54	177.568	176.32
178.371	1.788	Visual_Same	1	right	0.583	180.159	178.954
180.795	1.788	Visual_Different	1	left	0.522	182.583	181.317
183.185	1.789	Visual_Different	1	left	0.617	184.974	183.802
185.876	1.789	Visual_Lure	1	left	0.528	187.665	186.404
193.449	1.772	Auditory_Lure	1	left	1.107	195.221	194.556
195.773	1.788	Auditory_Lure	1	left	0.878	197.561	196.651
198.314	1.788	Auditory_Same	1	right	1.022	200.102	199.336
200.704	1.789	Auditory_Different	1	left	0.737	202.493	201.441
203.345	1.789	Auditory_Different	1	left	0.939	205.134	204.284
205.669	1.789	Auditory_Lure	1	left	1.026	207.458	206.695
213.241	1.789	Visual_Same	1	right	0.617	215.03	213.858
215.883	1.788	Visual_Different	1	left	0.507	217.671	216.39
218.307	1.788	Visual_Same	1	right	0.494	220.095	218.801
220.898	1.788	Visual_Lure	1	left	0.699	222.686	221.597
223.238	1.789	Visual_Lure	1	left	0.535	225.027	223.773
225.829	1.789	Visual_Different	1	left	0.497	227.618	226.326
228.27	1.788	Visual_Different	1	left	0.465	230.058	228.735
235.842	1.789	Auditory_Lure	1	left	0.799	237.631	236.641
238.433	1.789	Auditory_Lure	1	left	0.688	240.222	239.121
240.757	1.789	Auditory_Different	1	left	0.942	242.546	241.699
243.348	1.789	Auditory_Same	1	right	0.654	245.137	244.002
245.739	1.788	Auditory_Lure	1	left	0.643	247.527	246.382
253.445	1.789	Visual_Different	1	left	0.435	255.234	253.88
255.718	1.789	Visual_Different	1	left	0.45	257.507	256.168
258.259	1.789	Visual_Lure	1	left	0.769	260.048	259.028
260.7	1.789	Visual_Same	1	right	0.707	262.489	261.407
263.241	1.789	Visual_Same	0	left	1.088	265.03	264.329
265.882	1.789	Visual_Different	1	left	0.597	267.671	266.479
273.237	1.789	Auditory_Different	1	left	0.96	275.026	274.197
275.879	1.788	Auditory_Different	1	left	0.704	277.667	276.583
278.319	1.789	Auditory_Same	1	right	0.649	280.108	278.968
280.894	1.788	Auditory_Lure	1	left	0.734	282.682	281.628
283.184	1.788	Auditory_Different	1	left	0.765	284.972	283.949
290.89	1.789	Visual_Lure	1	left	0.359	292.679	291.249
293.331	1.788	Visual_Different	1	left	0.447	295.119	293.778
295.922	1.772	Visual_Same	1	right	0.771	297.694	296.693
298.296	1.788	Visual_Different	1	left	0.377	300.084	298.673
300.686	1.789	Visual_Different	1	left	0.423	302.475	301.109
303.227	1.789	Visual_Same	1	right	0.565	305.016	303.792
305.818	1.789	Visual_Same	1	right	0.992	307.607	306.81
313.34	1.789	Auditory_Same	1	right	0.934	315.129	314.274
315.881	1.789	Auditory_Lure	1	left	0.592	317.67	316.473
318.255	1.789	Auditory_Same	1	right	0.662	320.044	318.917
320.896	1.789	Auditory_Different	1	left	0.647	322.685	321.543
323.337	1.789	Auditory_Different	1	left	0.713	325.126	324.05
325.878	1.789	Auditory_Lure	1	left	0.935	327.667	326.813
333.434	1.788	Visual_Different	1	left	0.406	335.222	333.84
335.774	1.789	Visual_Different	1	left	0.488	337.563	336.262
338.315	1.789	Visual_Same	1	right	0.518	340.104	338.833
340.856	1.789	Visual_Lure	1	left	0.497	342.645	341.353
343.18	1.788	Visual_Different	1	left	0.37	344.968	343.55
350.786	1.788	Auditory_Lure	1	left	0.803	352.574	351.589
353.226	1.789	Auditory_Lure	1	left	0.604	355.015	353.83
355.817	1.789	Auditory_Same	1	right	0.637	357.606	356.454
358.191	1.789	Auditory_Lure	1	left	0.61	359.98	358.801
360.832	1.789	Auditory_Different	1	left	0.86	362.621	361.692
368.438	1.789	Visual_Lure	1	left	0.37	370.227	368.808
370.728	1.789	Visual_Lure	1	left	0.35	372.517	371.078
373.303	1.789	Visual_Same	1	right	0.512	375.092	373.815
375.744	1.788	Visual_Lure	1	left	0.38	377.532	376.124
378.335	1.788	Visual_Different	1	left	0.431	380.123	378.766
385.79	1.789	Auditory_Same	1	right	0.751	387.579	386.541
388.331	1.789	Auditory_Same	1	right	0.701	390.12	389.032
390.905	1.789	Auditory_Lure	1	left	0.644	392.694	391.549
393.196	1.788	Auditory_Different	1	left	0.888	394.984	394.084
395.787	1.788	Auditory_Same	1	right	0.691	397.575	396.478
403.242	1.789	Visual_Lure	1	left	0.534	405.031	403.776
405.766	1.789	Visual_Different	1	left	0.493	407.555	406.259
408.408	1.788	Visual_Lure	1	left	0.563	410.196	408.971
410.798	1.789	Visual_Same	1	right	0.632	412.587	411.43
413.339	1.789	Visual_Same	1	right	0.498	415.128	413.837
415.713	1.789	Visual_Different	1	left	0.436	417.502	416.149
423.386	1.788	Auditory_Lure	1	left	0.609	425.174	423.995
425.927	1.788	Auditory_Different	1	left	0.546	427.715	426.473
428.267	1.772	Auditory_Same	1	right	0.637	430.039	428.904
430.892	1.788	Auditory_Different	1	left	0.656	432.68	431.548
433.182	1.788	Auditory_Different	1	left	0.694	434.97	433.876
435.823	1.789	Auditory_Same	1	right	0.859	437.612	436.682
438.213	1.789	Auditory_Same	1	right	0.677	440.002	438.89
445.936	1.789	Visual_Lure	1	left	0.528	447.725	446.464
448.327	1.789	Visual_Lure	1	left	0.473	450.116	448.8
450.868	1.789	Visual_Same	1	right	0.43	452.657	451.298
453.191	1.789	Visual_Different	1	left	0.385	454.98	453.576
455.833	1.788	Visual_Different	1	left	0.318	457.621	456.151
458.273	1.789	Visual_Lure	1	left	0.389	460.062	458.662
465.829	1.789	Auditory_Same	1	right	0.688	467.618	466.517
468.22	1.788	Auditory_Different	1	left	0.588	470.008	468.808
470.761	1.788	Auditory_Same	1	right	0.613	472.549	471.374
473.301	1.789	Auditory_Lure	1	left	0.938	475.09	474.239
475.842	1.789	Auditory_Lure	1	left	0.889	477.631	476.731
478.367	1.788	Auditory_Different	1	left	0.641	480.155	479.008
480.657	1.788	Auditory_Different	1	left	0.669	482.445	481.326
488.28	1.788	Visual_Different	1	left	0.456	490.068	488.736
490.72	1.789	Visual_Same	1	right	0.505	492.509	491.225
493.412	1.788	Visual_Different	1	left	0.384	495.2	493.796
495.852	1.789	Visual_Lure	1	left	0.396	497.641	496.248
498.176	1.788	Visual_Lure	1	left	0.453	499.964	498.629
500.767	1.789	Visual_Same	1	right	0.38	502.556	501.147
508.39	1.788	Auditory_Lure	1	left	0.809	510.178	509.199
510.914	1.788	Auditory_Same	1	right	0.654	512.702	511.568
513.254	1.789	Auditory_Lure	1	left	0.553	515.043	513.807
515.795	1.789	Auditory_Different	1	left	0.636	517.584	516.431
518.236	1.788	Auditory_Different	1	left	0.54	520.024	518.776
520.827	1.788	Auditory_Same	1	right	0.638	522.615	521.465
523.15	1.789	Auditory_Same	0	left	0.669	524.939	523.819
530.94	1.789	Visual_Same	1	right	0.622	532.729	531.562
533.264	1.789	Visual_Lure	1	left	0.515	535.053	533.779
535.805	1.788	Visual_Different	1	left	0.389	537.593	536.194
538.396	1.789	Visual_Lure	1	left	0.372	540.185	538.768
540.836	1.789	Visual_Lure	1	left	0.492	542.625	541.328
543.21	1.789	Visual_Different	1	left	0.465	544.999	543.675
545.651	1.789	Visual_Different	1	left	0.371	547.44	546.022
553.441	1.772	Auditory_Different	1	left	0.615	555.213	554.056
555.815	1.788	Auditory_Different	1	left	0.495	557.603	556.31
558.205	1.789	Auditory_Lure	1	left	0.599	559.994	558.804
560.846	1.789	Auditory_Same	1	right	0.599	562.635	561.445
563.237	1.788	Auditory_Same	1	right	0.816	565.025	564.053
565.861	1.789	Auditory_Different	1	left	0.769	567.65	566.63
573.384	1.788	Visual_Lure	1	left	0.475	575.172	573.859
575.824	1.789	Visual_Lure	1	left	0.334	577.613	576.158
578.265	1.772	Visual_Different	1	left	0.356	580.037	578.621
580.689	1.789	Visual_Same	1	right	0.486	582.478	581.175
583.38	1.789	Visual_Lure	1	left	0.469	585.169	583.849
590.836	1.788	Auditory_Same	1	right	0.731	592.624	591.567
593.427	1.789	Auditory_Same	1	right	0.635	595.216	594.062
595.801	1.788	Auditory_Different	1	left	0.583	597.589	596.384
598.241	1.789	Auditory_Same	1	right	0.685	600.03	598.926
600.832	1.789	Auditory_Lure	1	left	0.556	602.621	601.388
608.238	1.788	Visual_Different	1	left	0.442	610.026	608.68
610.862	1.789	Visual_Different	1	left	0.373	612.651	611.235
613.253	1.788	Visual_Lure	1	left	0.67	615.041	613.923
615.894	1.789	Visual_Different	1	left	0.426	617.683	616.32
618.284	1.789	Visual_Same	1	right	0.484	620.073	618.768
625.723	1.789	Auditory_Different	1	left	0.736	627.512	626.459
628.415	1.788	Auditory_Different	1	left	0.648	630.203	629.063
630.755	1.789	Auditory_Lure	1	left	0.688	632.544	631.443
633.196	1.788	Auditory_Different	1	left	0.55	634.984	633.746
635.787	1.788	Auditory_Same	1	right	0.595	637.575	636.382
643.376	1.789	Visual_Same	1	right	0.506	645.165	643.882
645.917	1.789	Visual_Same	1	right	0.503	647.706	646.42
648.207	1.789	Visual_Different	1	left	0.405	649.996	648.612
650.748	1.789	Visual_Lure	1	left	0.372	652.537	651.12
653.272	1.789	Visual_Lure	1	left	0.455	655.061	653.727
655.713	1.789	Visual_Same	1	right	0.608	657.502	656.321
663.386	1.788	Auditory_Same	1	right	0.809	665.174	664.195
665.91	1.789	Auditory_Lure	1	left	0.713	667.699	666.623
668.2	1.789	Auditory_Different	1	left	0.81	669.989	669.01
670.791	1.789	Auditory_Lure	1	left	0.593	672.58	671.384
673.232	1.789	Auditory_Lure	1	left	0.634	675.021	673.866
675.823	1.789	Auditory_Different	1	left	0.626	677.612	676.449
678.197	1.788	Auditory_Different	0	right	0.459	679.985	678.656
685.836	1.789	Visual_Different	1	left	0.506	687.625	686.342
688.36	1.789	Visual_Same	1	right	0.508	690.149	688.868
690.701	1.788	Visual_Lure	1	left	0.452	692.489	691.153
693.392	1.789	Visual_Same	1	right	0.458	695.181	693.85
695.833	1.788	Visual_Same	1	right	0.53	697.621	696.363
698.374	1.772	Visual_Lure	1	left	0.462	700.146	698.836
700.747	1.789	Visual_Lure	1	left	0.571	702.536	701.318
708.437	1.789	Auditory_Different	1	left	0.788	710.226	709.225
710.861	1.789	Auditory_Lure	1	left	0.941	712.65	711.802
713.301	1.789	Auditory_Different	1	left	0.981	715.09	714.282
715.692	1.789	Auditory_Same	1	right	0.828	717.481	716.52
718.283	1.789	Auditory_Same	1	right	0.747	720.072	719.03
720.673	1.772	Auditory_Lure	1	left	0.732	722.445	721.405
723.198	1.788	Auditory_Lure	1	left	0.945	724.986	724.143
