"onset"	"trial_type"	"accuracy"	"button"	"response_time"	"duration"	"time_to_offset_alternative_onset"	"time_to_RT_alternative_onset_or_duration"
10.949	"Visual_Different"	0	NA	NA	1.789	12.738	NA
13.34	"Visual_Same"	1	"right"	1.42	1.772	15.112	14.76
15.764	"Visual_Different"	0	"right"	1.602	1.788	17.552	17.366
18.355	"Visual_Lure"	0	"right"	1.131	1.788	20.143	19.486
20.695	"Visual_Lure"	0	NA	NA	1.789	22.484	NA
23.286	"Visual_Same"	1	"right"	0.972	1.789	25.075	24.258
30.792	"Auditory_Same"	0	NA	NA	1.788	32.58	NA
33.433	"Auditory_Different"	0	"right"	1.632	1.789	35.222	35.065
35.874	"Auditory_Same"	1	"right"	1.497	1.788	37.662	37.371
38.197	"Auditory_Lure"	0	"right"	1.043	1.789	39.986	39.24
40.788	"Auditory_Lure"	1	"left"	1.737	1.789	42.577	42.525
43.229	"Auditory_Different"	0	NA	NA	1.789	45.018	NA
45.669	"Auditory_Different"	0	NA	NA	1.789	47.458	NA
53.242	"Visual_Lure"	0	NA	NA	1.789	55.031	NA
55.883	"Visual_Same"	1	"right"	0.879	1.789	57.672	56.762
58.424	"Visual_Lure"	1	"left"	1.484	1.789	60.213	59.908
60.748	"Visual_Different"	0	NA	NA	1.788	62.536	NA
63.389	"Visual_Different"	0	"right"	1.581	1.789	65.178	64.97
65.729	"Visual_Same"	0	NA	NA	1.789	67.518	NA
68.27	"Visual_Same"	1	"right"	0.762	1.789	70.059	69.032
75.893	"Auditory_Lure"	0	"right"	1.769	1.789	77.682	77.662
78.434	"Auditory_Lure"	0	NA	NA	1.789	80.223	NA
80.824	"Auditory_Same"	1	"right"	1.092	1.789	82.613	81.916
83.198	"Auditory_Lure"	0	"right"	1.381	1.789	84.987	84.579
85.839	"Auditory_Different"	0	NA	NA	1.789	87.628	NA
93.245	"Visual_Different"	0	NA	NA	1.788	95.033	NA
95.886	"Visual_Different"	0	"right"	1.003	1.789	97.675	96.889
98.41	"Visual_Lure"	1	"left"	1.68	1.789	100.199	100.09
100.75	"Visual_Same"	1	"right"	0.855	1.789	102.539	101.605
103.191	"Visual_Same"	1	"right"	0.802	1.789	104.98	103.993
105.832	"Visual_Different"	0	"right"	1.236	1.789	107.621	107.068
113.338	"Auditory_Same"	1	"right"	1.096	1.789	115.127	114.434
115.929	"Auditory_Same"	1	"right"	1.121	1.789	117.718	117.05
118.269	"Auditory_Lure"	1	"left"	1.559	1.789	120.058	119.828
120.81	"Auditory_Different"	0	NA	NA	1.789	122.599	NA
123.184	"Auditory_Same"	1	"right"	1.253	1.789	124.973	124.437
130.84	"Visual_Same"	1	"right"	0.926	1.789	132.629	131.766
133.231	"Visual_Lure"	0	NA	NA	1.788	135.019	NA
135.772	"Visual_Same"	1	"right"	0.753	1.788	137.56	136.525
138.346	"Visual_Different"	0	NA	NA	1.788	140.134	NA
140.786	"Visual_Different"	0	"right"	0.946	1.789	142.575	141.732
143.378	"Visual_Lure"	0	"right"	1.106	1.788	145.166	144.484
150.933	"Auditory_Same"	1	"right"	0.803	1.789	152.722	151.736
153.374	"Auditory_Lure"	0	"right"	1.664	1.789	155.163	155.038
155.764	"Auditory_Different"	0	NA	NA	1.789	157.553	NA
158.356	"Auditory_Lure"	0	"right"	1.557	1.788	160.144	159.913
160.796	"Auditory_Lure"	0	"right"	1.21	1.789	162.585	162.006
163.37	"Auditory_Different"	0	"right"	1.66	1.789	165.159	165.03
165.661	"Auditory_Different"	0	NA	NA	1.788	167.449	NA
173.333	"Visual_Different"	0	"right"	1.377	1.789	175.122	174.71
175.874	"Visual_Lure"	0	NA	NA	1.789	177.663	NA
178.215	"Visual_Different"	1	"left"	1.236	1.788	180.003	179.451
180.756	"Visual_Same"	1	"right"	0.87	1.788	182.544	181.626
183.397	"Visual_Same"	1	"right"	0.619	1.772	185.169	184.016
185.771	"Visual_Lure"	0	NA	NA	1.788	187.559	NA
188.211	"Visual_Lure"	0	NA	NA	1.789	190	NA
195.784	"Auditory_Lure"	0	"right"	1.202	1.788	197.572	196.986
198.425	"Auditory_Different"	0	NA	NA	1.789	200.214	NA
200.866	"Auditory_Lure"	0	NA	NA	1.788	202.654	NA
203.306	"Auditory_Same"	1	"right"	0.905	1.789	205.095	204.211
205.68	"Auditory_Same"	1	"right"	0.932	1.789	207.469	206.612
208.221	"Auditory_Different"	0	"right"	1.309	1.789	210.01	209.53
215.894	"Visual_Lure"	0	NA	NA	1.788	217.682	NA
218.418	"Visual_Lure"	0	"right"	1.595	1.789	220.207	220.013
220.708	"Visual_Same"	1	"right"	1.553	1.789	222.497	222.261
223.249	"Visual_Lure"	0	NA	NA	1.789	225.038	NA
225.69	"Visual_Different"	0	"right"	0.691	1.788	227.478	226.381
233.346	"Auditory_Same"	1	"right"	1.429	1.788	235.134	234.775
235.87	"Auditory_Lure"	0	"right"	0.957	1.789	237.659	236.827
238.411	"Auditory_Same"	1	"right"	0.924	1.789	240.2	239.335
240.751	"Auditory_Different"	0	"right"	1.194	1.789	242.54	241.945
243.192	"Auditory_Different"	1	"left"	1.543	1.788	244.98	244.735
245.716	"Auditory_Lure"	0	"right"	0.998	1.789	247.505	246.714
253.439	"Visual_Different"	1	"left"	1.77	1.789	255.228	255.209
255.829	"Visual_Different"	0	"right"	0.87	1.789	257.618	256.699
258.37	"Visual_Lure"	0	"right"	0.953	1.789	260.159	259.323
260.794	"Visual_Different"	0	"right"	1.723	1.789	262.583	262.517
263.185	"Visual_Same"	1	"right"	0.737	1.788	264.973	263.922
270.741	"Auditory_Lure"	0	NA	NA	1.788	272.529	NA
273.332	"Auditory_Lure"	0	"right"	1.778	1.788	275.12	275.11
275.856	"Auditory_Different"	0	"right"	1.455	1.788	277.644	277.311
278.397	"Auditory_Same"	1	"right"	1.281	1.788	280.185	279.678
280.737	"Auditory_Lure"	1	"left"	1.534	1.789	282.526	282.271
288.393	"Visual_Lure"	1	"left"	1.75	1.789	290.182	290.143
290.917	"Visual_Lure"	1	"left"	1.433	1.789	292.706	292.35
293.258	"Visual_Different"	0	"right"	0.648	1.788	295.046	293.906
295.899	"Visual_Same"	1	"right"	1.597	1.789	297.688	297.496
298.239	"Visual_Lure"	0	"right"	1.125	1.789	300.028	299.364
305.879	"Auditory_Lure"	0	"right"	1.411	1.788	307.667	307.29
308.319	"Auditory_Lure"	0	NA	NA	1.789	310.108	NA
310.91	"Auditory_Same"	1	"right"	0.926	1.789	312.699	311.836
313.201	"Auditory_Different"	0	"right"	1.027	1.788	314.989	314.228
315.792	"Auditory_Different"	0	NA	NA	1.788	317.58	NA
318.165	"Auditory_Lure"	1	"left"	1.73	1.789	319.954	319.895
325.838	"Visual_Lure"	0	"right"	0.578	1.789	327.627	326.416
328.379	"Visual_Lure"	0	NA	NA	1.789	330.168	NA
330.703	"Visual_Same"	0	"left"	0.333	1.788	332.491	331.036
333.344	"Visual_Different"	0	"right"	1.591	1.789	335.133	334.935
335.885	"Visual_Different"	0	"right"	1.293	1.788	337.673	337.178
338.275	"Visual_Lure"	0	"right"	0.809	1.789	340.064	339.084
345.781	"Auditory_Different"	0	NA	NA	1.789	347.57	NA
348.372	"Auditory_Same"	1	"right"	1.183	1.789	350.161	349.555
350.913	"Auditory_Lure"	0	NA	NA	1.789	352.702	NA
353.354	"Auditory_Same"	1	"right"	1.011	1.788	355.142	354.365
355.777	"Auditory_Same"	1	"right"	0.678	1.789	357.566	356.455
358.368	"Auditory_Lure"	1	"left"	1.556	1.789	360.157	359.924
360.709	"Auditory_Lure"	0	"right"	0.973	1.788	362.497	361.682
368.281	"Visual_Same"	1	"right"	0.692	1.789	370.07	368.973
370.722	"Visual_Lure"	0	NA	NA	1.789	372.511	NA
373.313	"Visual_Different"	0	NA	NA	1.789	375.102	NA
375.754	"Visual_Lure"	0	"right"	1.17	1.772	377.526	376.924
378.178	"Visual_Lure"	1	"left"	1.247	1.788	379.966	379.425
380.869	"Visual_Different"	0	"right"	1.076	1.789	382.658	381.945
383.31	"Visual_Different"	0	"right"	1.009	1.788	385.098	384.319
390.732	"Auditory_Lure"	0	"right"	1.49	1.788	392.52	392.222
393.423	"Auditory_Same"	1	"right"	1.081	1.789	395.212	394.504
395.864	"Auditory_Lure"	0	"right"	1.646	1.788	397.652	397.51
398.187	"Auditory_Different"	1	"left"	1.734	1.789	399.976	399.921
400.778	"Auditory_Different"	0	NA	NA	1.789	402.567	NA
403.219	"Auditory_Same"	1	"right"	0.905	1.789	405.008	404.124
405.86	"Auditory_Same"	1	"right"	0.791	1.789	407.649	406.651
413.332	"Visual_Same"	1	"right"	0.819	1.789	415.121	414.151
415.923	"Visual_Same"	1	"right"	0.84	1.789	417.712	416.763
418.364	"Visual_Different"	0	"right"	1.406	1.789	420.153	419.77
420.688	"Visual_Same"	0	NA	NA	1.788	422.476	NA
423.229	"Visual_Lure"	0	NA	NA	1.788	425.017	NA
430.885	"Auditory_Lure"	0	"right"	1.135	1.788	432.673	432.02
433.225	"Auditory_Different"	0	"right"	1.125	1.789	435.014	434.35
435.816	"Auditory_Same"	1	"right"	1.096	1.772	437.588	436.912
438.24	"Auditory_Different"	1	"left"	1.574	1.789	440.029	439.814
440.781	"Auditory_Different"	0	NA	NA	1.788	442.569	NA
443.221	"Auditory_Same"	1	"right"	1.223	1.789	445.01	444.444
445.662	"Auditory_Same"	1	"right"	0.834	1.789	447.451	446.496
453.435	"Visual_Lure"	1	"left"	1.267	1.789	455.224	454.702
455.725	"Visual_Different"	1	"left"	1.373	1.789	457.514	457.098
458.25	"Visual_Lure"	0	"right"	0.707	1.788	460.038	458.957
460.841	"Visual_Same"	1	"right"	0.723	1.788	462.629	461.564
463.281	"Visual_Same"	1	"right"	0.628	1.789	465.07	463.909
465.822	"Visual_Different"	1	"left"	1.355	1.789	467.611	467.177
473.378	"Auditory_Same"	1	"right"	0.823	1.789	475.167	474.201
475.919	"Auditory_Same"	1	"right"	0.883	1.789	477.708	476.802
478.36	"Auditory_Different"	0	"right"	1.783	1.788	480.148	480.143
480.75	"Auditory_Same"	1	"right"	1.767	1.789	482.539	482.517
483.174	"Auditory_Lure"	1	"left"	1.281	1.789	484.963	484.455
490.93	"Visual_Same"	1	"right"	0.665	1.789	492.719	491.595
493.271	"Visual_Different"	0	NA	NA	1.788	495.059	NA
495.711	"Visual_Same"	1	"right"	0.545	1.789	497.5	496.256
498.286	"Visual_Lure"	0	"right"	0.613	1.788	500.074	498.899
500.826	"Visual_Lure"	1	"left"	1.28	1.789	502.615	502.106
503.367	"Visual_Different"	1	"left"	1.372	1.789	505.156	504.739
505.758	"Visual_Different"	1	"left"	1.02	1.789	507.547	506.778
513.33	"Auditory_Different"	1	"left"	1.482	1.789	515.119	514.812
515.921	"Auditory_Different"	1	"left"	1.302	1.789	517.71	517.223
518.262	"Auditory_Lure"	0	NA	NA	1.788	520.05	NA
520.836	"Auditory_Same"	1	"right"	0.744	1.789	522.625	521.58
523.176	"Auditory_Same"	1	"right"	0.723	1.789	524.965	523.899
525.768	"Auditory_Different"	1	"left"	1.059	1.788	527.556	526.827
533.273	"Visual_Same"	1	"right"	0.674	1.789	535.062	533.947
535.714	"Visual_Same"	1	"right"	0.727	1.788	537.502	536.441
538.355	"Visual_Lure"	1	"left"	1.347	1.789	540.144	539.702
540.695	"Visual_Different"	1	"left"	1.195	1.789	542.484	541.89
543.387	"Visual_Same"	1	"right"	0.653	1.772	545.159	544.04
550.926	"Auditory_Different"	1	"left"	1.322	1.789	552.715	552.248
553.266	"Auditory_Different"	1	"left"	1.468	1.789	555.055	554.734
555.807	"Auditory_Lure"	1	"left"	1.224	1.789	557.596	557.031
558.348	"Auditory_Different"	0	NA	NA	1.789	560.137	NA
560.872	"Auditory_Same"	1	"right"	0.857	1.789	562.661	561.729
568.328	"Visual_Lure"	1	"left"	1.355	1.788	570.116	569.683
570.768	"Visual_Different"	0	"right"	0.941	1.789	572.557	571.709
573.41	"Visual_Same"	0	NA	NA	1.788	575.198	NA
575.833	"Visual_Different"	0	"right"	0.729	1.789	577.622	576.562
578.224	"Visual_Different"	1	"left"	1.484	1.789	580.013	579.708
580.664	"Visual_Same"	1	"right"	1.45	1.789	582.453	582.114
583.256	"Visual_Same"	1	"right"	0.707	1.788	585.044	583.963
590.728	"Auditory_Different"	1	"left"	1.727	1.789	592.517	592.455
593.269	"Auditory_Different"	0	NA	NA	1.788	595.057	NA
595.81	"Auditory_Same"	1	"right"	0.706	1.788	597.598	596.516
598.334	"Auditory_Lure"	1	"left"	1.039	1.789	600.123	599.373
600.674	"Auditory_Different"	1	"left"	1.5	1.789	602.463	602.174
608.431	"Visual_Different"	1	"left"	1.045	1.788	610.219	609.476
610.771	"Visual_Same"	1	"right"	0.623	1.789	612.56	611.394
613.345	"Visual_Lure"	1	"left"	1.02	1.789	615.134	614.365
615.786	"Visual_Same"	1	"right"	0.772	1.789	617.575	616.558
618.176	"Visual_Same"	1	"right"	0.75	1.789	619.965	618.926
620.717	"Visual_Lure"	1	"left"	1.081	1.789	622.506	621.798
623.158	"Visual_Lure"	1	"left"	1.558	1.788	624.946	624.716
630.931	"Auditory_Different"	1	"left"	1.77	1.789	632.72	632.701
633.372	"Auditory_Same"	1	"right"	0.778	1.788	635.16	634.15
635.745	"Auditory_Different"	1	"left"	1.025	1.789	637.534	636.77
638.286	"Auditory_Lure"	1	"left"	1.341	1.789	640.075	639.627
640.677	"Auditory_Lure"	1	"left"	1.349	1.788	642.465	642.026
643.368	"Auditory_Same"	1	"right"	0.74	1.789	645.157	644.108
650.874	"Visual_Same"	1	"right"	0.71	1.788	652.662	651.584
653.314	"Visual_Same"	1	"right"	1.334	1.789	655.103	654.648
655.905	"Visual_Different"	1	"left"	1.008	1.789	657.694	656.913
658.196	"Visual_Lure"	1	"left"	1.03	1.788	659.984	659.226
660.82	"Visual_Lure"	1	"left"	0.864	1.789	662.609	661.684
663.261	"Visual_Same"	1	"right"	1.03	1.788	665.049	664.291
670.833	"Auditory_Same"	1	"right"	0.791	1.789	672.622	671.624
673.357	"Auditory_Same"	1	"right"	0.886	1.789	675.146	674.243
675.698	"Auditory_Different"	1	"left"	0.952	1.788	677.486	676.65
678.389	"Auditory_Lure"	0	"right"	1.152	1.789	680.178	679.541
680.729	"Auditory_Lure"	1	"left"	0.988	1.789	682.518	681.717
683.17	"Auditory_Same"	1	"right"	0.953	1.789	684.959	684.123
690.927	"Visual_Different"	1	"left"	1.615	1.788	692.715	692.542
693.267	"Visual_Different"	1	"left"	0.712	1.789	695.056	693.979
695.908	"Visual_Same"	1	"right"	1.468	1.789	697.697	697.376
698.181	"Visual_Lure"	1	"left"	0.905	1.789	699.97	699.086
700.773	"Visual_Different"	1	"left"	1.045	1.788	702.561	701.818
708.429	"Auditory_Different"	1	"left"	1.048	1.788	710.217	709.477
710.769	"Auditory_Lure"	1	"left"	1.309	1.789	712.558	712.078
713.293	"Auditory_Different"	1	"left"	1.6	1.789	715.082	714.893
715.834	"Auditory_Same"	1	"right"	0.846	1.789	717.623	716.68
718.275	"Auditory_Same"	1	"right"	0.761	1.788	720.063	719.036
720.665	"Auditory_Lure"	1	"left"	1.405	1.789	722.454	722.07
723.357	"Auditory_Lure"	1	"left"	1.211	1.788	725.145	724.568
