onset	duration	trial_type	accuracy	button	response_time	time_to_offset_alternative_onset	time_to_RT_alternative_onset_or_duration
10.897	1.788	Visual_Same	1	right	1.091	12.685	11.988
13.237	1.789	Visual_Lure	1	left	0.933	15.026	14.17
15.761	1.789	Visual_Same	0	NA	NA	17.55	NA
18.402	1.789	Visual_Different	0	NA	NA	20.191	NA
20.793	1.789	Visual_Different	0	right	1.197	22.582	21.99
23.234	1.788	Visual_Lure	0	NA	NA	25.022	NA
30.94	1.789	Auditory_Different	1	left	1.43	32.729	32.37
33.23	1.789	Auditory_Different	1	left	1.34	35.019	34.57
35.771	1.789	Auditory_Lure	1	left	1.467	37.56	37.238
38.312	1.789	Auditory_Different	0	NA	NA	40.101	NA
40.836	1.789	Auditory_Same	1	right	1.569	42.625	42.405
48.392	1.789	Visual_Different	1	left	1.061	50.181	49.453
50.833	1.788	Visual_Lure	1	left	0.797	52.621	51.63
53.223	1.789	Visual_Different	1	left	0.874	55.012	54.097
55.898	1.788	Visual_Same	1	right	1.148	57.686	57.046
58.288	1.789	Visual_Same	1	right	0.854	60.077	59.142
60.679	1.788	Visual_Lure	1	left	0.557	62.467	61.236
63.219	1.789	Visual_Lure	1	left	0.95	65.008	64.169
70.792	1.789	Auditory_Different	1	left	0.997	72.581	71.789
73.383	1.789	Auditory_Different	1	left	0.82	75.172	74.203
75.824	1.788	Auditory_Lure	1	left	0.992	77.612	76.816
78.398	1.789	Auditory_Same	1	right	1.157	80.187	79.555
80.688	1.789	Auditory_Same	1	right	0.925	82.477	81.613
83.38	1.788	Auditory_Different	1	left	0.88	85.168	84.26
90.885	1.789	Visual_Lure	1	left	0.658	92.674	91.543
93.426	1.789	Visual_Same	0	NA	NA	95.215	NA
95.767	1.788	Visual_Lure	1	left	0.793	97.555	96.56
98.307	1.789	Visual_Different	1	left	1.011	100.096	99.318
100.698	1.772	Visual_Different	1	left	0.855	102.47	101.553
103.322	1.789	Visual_Same	1	right	0.921	105.111	104.243
105.863	1.789	Visual_Same	1	right	0.567	107.652	106.43
113.386	1.788	Auditory_Lure	1	left	0.903	115.174	114.289
115.776	1.789	Auditory_Lure	1	left	0.871	117.565	116.647
118.317	1.789	Auditory_Same	1	right	0.804	120.106	119.121
120.708	1.788	Auditory_Lure	0	right	0.849	122.496	121.557
123.232	1.788	Auditory_Different	1	left	0.976	125.02	124.208
130.888	1.789	Visual_Different	1	left	0.942	132.677	131.83
133.429	1.789	Visual_Same	1	right	0.965	135.218	134.394
135.719	1.789	Visual_Lure	1	left	0.817	137.508	136.536
138.293	1.789	Visual_Same	1	right	1.033	140.082	139.326
140.734	1.789	Visual_Same	1	right	0.677	142.523	141.411
143.325	1.789	Visual_Lure	1	left	0.843	145.114	144.168
145.665	1.789	Visual_Lure	0	right	1.347	147.454	147.012
153.238	1.789	Auditory_Same	1	right	0.951	155.027	154.189
155.829	1.789	Auditory_Same	1	right	0.76	157.618	156.589
158.42	1.789	Auditory_Different	1	left	1.075	160.209	159.495
160.861	1.772	Auditory_Lure	0	right	0.82	162.633	161.681
163.184	1.789	Auditory_Lure	1	left	1.101	164.973	164.285
165.775	1.789	Auditory_Same	1	right	0.772	167.564	166.547
173.431	1.789	Visual_Lure	1	left	0.613	175.22	174.044
175.772	1.788	Visual_Lure	1	left	0.662	177.56	176.434
178.313	1.788	Visual_Different	1	left	0.631	180.101	178.944
180.854	1.788	Visual_Same	1	right	0.808	182.642	181.662
183.194	1.789	Visual_Lure	1	left	0.704	184.983	183.898
190.934	1.788	Auditory_Different	1	left	0.951	192.722	191.885
193.374	1.789	Auditory_Different	1	left	1.043	195.163	194.417
195.765	1.788	Auditory_Same	1	right	0.742	197.553	196.507
198.306	1.788	Auditory_Lure	0	right	0.992	200.094	199.298
200.847	1.772	Auditory_Different	1	left	0.787	202.619	201.634
208.436	1.789	Visual_Same	1	right	1.024	210.225	209.46
210.776	1.789	Visual_Same	1	right	0.941	212.565	211.717
213.317	1.789	Visual_Different	1	left	0.769	215.106	214.086
215.858	1.789	Visual_Lure	1	left	1.01	217.647	216.868
218.232	1.788	Visual_Lure	1	left	0.889	220.02	219.121
220.773	1.788	Visual_Same	1	right	0.71	222.561	221.483
228.245	1.789	Auditory_Lure	1	left	0.92	230.034	229.165
230.769	1.789	Auditory_Lure	1	left	1.035	232.558	231.804
233.41	1.789	Auditory_Same	1	right	0.916	235.199	234.326
235.801	1.789	Auditory_Different	1	left	0.873	237.59	236.674
238.191	1.789	Auditory_Different	1	left	1.007	239.98	239.198
240.883	1.772	Auditory_Lure	1	left	1.384	242.655	242.267
248.238	1.789	Visual_Different	1	left	0.506	250.027	248.744
250.929	1.789	Visual_Different	1	left	0.989	252.718	251.918
253.303	1.789	Visual_Same	1	right	0.863	255.092	254.166
255.894	1.789	Visual_Lure	1	left	0.633	257.683	256.527
258.184	1.789	Visual_Different	1	left	1.373	259.973	259.557
265.79	1.789	Auditory_Lure	1	left	1.12	267.579	266.91
268.381	1.772	Auditory_Same	1	right	0.876	270.153	269.257
270.805	1.789	Auditory_Lure	1	left	0.784	272.594	271.589
273.346	1.789	Auditory_Different	1	left	0.997	275.135	274.343
275.737	1.788	Auditory_Different	1	left	0.893	277.525	276.63
278.177	1.789	Auditory_Same	1	right	0.794	279.966	278.971
280.852	1.788	Auditory_Same	1	right	0.855	282.64	281.707
288.391	1.789	Visual_Same	1	right	0.702	290.18	289.093
290.765	1.788	Visual_Lure	1	left	0.818	292.553	291.583
293.306	1.788	Visual_Different	1	left	0.855	295.094	294.161
295.847	1.788	Visual_Lure	1	left	0.638	297.635	296.485
298.187	1.789	Visual_Lure	1	left	0.714	299.976	298.901
300.878	1.789	Visual_Different	1	left	0.73	302.667	301.608
303.202	1.788	Visual_Different	1	left	0.644	304.99	303.846
310.741	1.789	Auditory_Same	1	right	0.906	312.53	311.647
313.416	1.788	Auditory_Lure	1	left	0.927	315.204	314.343
315.856	1.789	Auditory_Different	1	left	0.923	317.645	316.779
318.297	1.789	Auditory_Lure	1	left	1.13	320.086	319.427
320.737	1.789	Auditory_Lure	1	left	1.281	322.526	322.018
323.379	1.788	Auditory_Different	1	left	0.806	325.167	324.185
325.803	1.788	Auditory_Different	1	left	0.803	327.591	326.606
333.392	1.788	Visual_Different	1	left	0.815	335.18	334.207
335.916	1.789	Visual_Different	1	left	0.771	337.705	336.687
338.306	1.789	Visual_Lure	1	left	1.628	340.095	339.934
340.747	1.789	Visual_Different	1	left	1.014	342.536	341.761
343.188	1.788	Visual_Same	1	right	1.332	344.976	344.52
350.727	1.789	Auditory_Same	1	right	0.887	352.516	351.614
353.268	1.788	Auditory_Same	1	right	0.831	355.056	354.099
355.809	1.788	Auditory_Different	1	left	0.752	357.597	356.561
358.35	1.788	Auditory_Same	1	right	0.941	360.138	359.291
360.79	1.789	Auditory_Lure	1	left	0.894	362.579	361.684
368.43	1.788	Visual_Same	1	right	0.888	370.218	369.318
370.87	1.789	Visual_Different	1	left	0.741	372.659	371.611
373.211	1.788	Visual_Same	1	right	0.931	374.999	374.142
375.802	1.788	Visual_Lure	1	left	0.764	377.59	376.566
378.226	1.788	Visual_Lure	1	left	0.897	380.014	379.123
380.766	1.789	Visual_Different	1	left	0.873	382.555	381.639
383.358	1.788	Visual_Different	1	left	0.768	385.146	384.126
390.93	1.789	Auditory_Same	1	right	0.86	392.719	391.79
393.22	1.789	Auditory_Lure	0	right	0.983	395.009	394.203
395.761	1.789	Auditory_Same	1	right	0.978	397.55	396.739
398.202	1.772	Auditory_Different	1	left	0.788	399.974	398.99
400.776	1.789	Auditory_Different	1	left	1.065	402.565	401.841
403.217	1.788	Auditory_Lure	0	right	0.845	405.005	404.062
410.739	1.789	Visual_Different	1	left	0.743	412.528	411.482
413.263	1.789	Visual_Same	1	right	1.223	415.052	414.486
415.854	1.789	Visual_Different	1	left	0.752	417.643	416.606
418.195	1.788	Visual_Lure	1	left	1.028	419.983	419.223
420.786	1.788	Visual_Lure	1	left	0.943	422.574	421.729
423.327	1.772	Visual_Same	1	right	0.807	425.099	424.134
430.883	1.788	Auditory_Different	1	left	1.146	432.671	432.029
433.423	1.789	Auditory_Same	1	right	1.125	435.212	434.548
435.864	1.789	Auditory_Lure	1	left	1.024	437.653	436.888
438.288	1.789	Auditory_Same	1	right	1.206	440.077	439.494
440.729	1.788	Auditory_Same	1	right	0.929	442.517	441.658
443.37	1.788	Auditory_Lure	1	left	1.023	445.158	444.393
445.66	1.789	Auditory_Lure	1	left	0.936	447.449	446.596
453.283	1.788	Visual_Lure	1	left	0.82	455.071	454.103
455.924	1.789	Visual_Lure	1	left	0.717	457.713	456.641
458.348	1.788	Visual_Same	1	right	0.929	460.136	459.277
460.889	1.788	Visual_Different	1	left	0.636	462.677	461.525
463.229	1.789	Visual_Different	1	left	0.694	465.018	463.923
465.77	1.789	Visual_Lure	1	left	0.89	467.559	466.66
473.426	1.789	Auditory_Same	1	right	1.111	475.215	474.537
475.867	1.788	Auditory_Different	1	left	0.91	477.655	476.777
478.207	1.789	Auditory_Same	1	right	0.932	479.996	479.139
480.748	1.789	Auditory_Lure	1	left	1.019	482.537	481.767
483.272	1.789	Auditory_Lure	1	left	1.036	485.061	484.308
485.663	1.788	Auditory_Different	1	left	1.001	487.451	486.664
488.354	1.789	Auditory_Different	1	left	1.04	490.143	489.394
495.726	1.789	Visual_Same	1	right	0.867	497.515	496.593
498.267	1.788	Visual_Same	1	right	0.664	500.055	498.931
500.858	1.789	Visual_Lure	1	left	0.941	502.647	501.799
503.198	1.789	Visual_Different	1	left	0.905	504.987	504.103
505.773	1.788	Visual_Same	1	right	1.094	507.561	506.867
513.328	1.789	Auditory_Lure	1	left	0.813	515.117	514.141
515.769	1.789	Auditory_Different	1	left	1.161	517.558	516.93
518.36	1.789	Auditory_Lure	1	left	1.148	520.149	519.508
520.784	1.789	Auditory_Same	1	right	0.919	522.573	521.703
523.174	1.789	Auditory_Same	1	right	0.932	524.963	524.106
525.866	1.788	Auditory_Different	1	left	1.411	527.654	527.277
533.422	1.788	Visual_Lure	1	left	0.762	535.21	534.184
535.762	1.789	Visual_Different	1	left	1.197	537.551	536.959
538.353	1.789	Visual_Same	1	right	0.828	540.142	539.181
540.693	1.789	Visual_Different	1	left	0.599	542.482	541.292
543.385	1.788	Visual_Different	1	left	0.88	545.173	544.265
545.758	1.789	Visual_Same	1	right	0.856	547.547	546.614
548.299	1.789	Visual_Same	1	right	0.526	550.088	548.825
555.872	1.789	Auditory_Lure	1	left	1.05	557.661	556.922
558.262	1.789	Auditory_Lure	1	left	1.161	560.051	559.423
560.853	1.789	Auditory_Different	1	left	1.255	562.642	562.108
563.194	1.788	Auditory_Same	1	right	0.803	564.982	563.997
565.785	1.772	Auditory_Lure	1	left	0.774	567.557	566.559
573.324	1.789	Visual_Lure	1	left	0.684	575.113	574.008
575.765	1.788	Visual_Lure	1	left	0.88	577.553	576.645
578.406	1.788	Visual_Same	1	right	0.848	580.194	579.254
580.696	1.789	Visual_Lure	1	left	0.781	582.485	581.477
583.22	1.789	Visual_Different	1	left	0.457	585.009	583.677
590.776	1.789	Auditory_Different	1	left	0.785	592.565	591.561
593.417	1.789	Auditory_Lure	1	left	0.765	595.206	594.182
595.808	1.788	Auditory_Different	1	left	1.1	597.596	596.908
598.232	1.788	Auditory_Same	1	right	0.759	600.02	598.991
600.823	1.788	Auditory_Same	1	right	0.863	602.611	601.686
603.364	1.788	Auditory_Lure	1	left	0.706	605.152	604.07
605.654	1.788	Auditory_Lure	1	left	0.975	607.442	606.629
613.427	1.789	Visual_Different	0	NA	NA	615.216	NA
615.717	1.789	Visual_Different	1	left	0.733	617.506	616.45
618.308	1.789	Visual_Lure	1	left	0.855	620.097	619.163
620.832	1.789	Visual_Same	1	right	0.849	622.621	621.681
623.223	1.788	Visual_Same	1	right	0.809	625.011	624.032
625.764	1.788	Visual_Different	1	left	0.265	627.552	626.029
633.269	1.789	Auditory_Different	1	left	1.086	635.058	634.355
635.86	1.789	Auditory_Same	1	right	0.917	637.649	636.777
638.201	1.788	Auditory_Different	1	left	0.858	639.989	639.059
640.892	1.789	Auditory_Lure	1	left	0.976	642.681	641.868
643.283	1.772	Auditory_Lure	1	left	1.04	645.055	644.323
645.857	1.789	Auditory_Same	1	right	0.793	647.646	646.65
653.43	1.788	Visual_Same	1	right	0.628	655.218	654.058
655.87	1.789	Visual_Same	1	right	0.618	657.659	656.488
658.194	1.788	Visual_Different	1	left	0.63	659.982	658.824
660.785	1.788	Visual_Same	1	right	0.848	662.573	661.633
663.326	1.788	Visual_Lure	1	left	0.845	665.114	664.171
670.882	1.788	Auditory_Lure	1	left	0.946	672.67	671.828
673.305	1.789	Auditory_Different	1	left	0.836	675.094	674.141
675.746	1.789	Auditory_Same	1	right	1.092	677.535	676.838
678.187	1.788	Auditory_Different	1	left	0.986	679.975	679.173
680.878	1.789	Auditory_Different	1	left	1.008	682.667	681.886
683.218	1.789	Auditory_Same	1	right	0.943	685.007	684.161
685.642	1.789	Auditory_Same	1	right	0.841	687.431	686.483
693.232	1.788	Visual_Lure	1	left	0.742	695.02	693.974
695.906	1.789	Visual_Different	1	left	0.666	697.695	696.572
698.247	1.788	Visual_Lure	1	left	1.01	700.035	699.257
700.787	1.789	Visual_Same	1	right	0.888	702.576	701.675
703.328	1.789	Visual_Same	1	right	0.638	705.117	703.966
705.869	1.789	Visual_Different	1	left	0.589	707.658	706.458
713.375	1.789	Auditory_Same	1	right	1.025	715.164	714.4
715.816	1.788	Auditory_Same	1	right	0.992	717.604	716.808
718.356	1.789	Auditory_Lure	1	left	0.92	720.145	719.276
720.881	1.788	Auditory_Different	1	left	1.106	722.669	721.987
723.171	1.788	Auditory_Same	1	right	0.959	724.959	724.13
