onset	duration	trial_type	accuracy	button	response_time	time_to_offset_alternative_onset	time_to_RT_alternative_onset_or_duration
10.786	1.789	Visual_Same	1	right	1.215	12.575	12.001
13.227	1.788	Visual_Same	1	right	1.035	15.015	14.262
15.868	1.789	Visual_Lure	1	left	1.077	17.657	16.945
18.409	1.789	Visual_Different	1	left	1.21	20.198	19.619
20.799	1.789	Visual_Same	1	right	1.151	22.588	21.95
28.238	1.789	Auditory_Same	1	right	1.103	30.027	29.341
30.879	1.789	Auditory_Lure	1	left	1.254	32.668	32.133
33.32	1.789	Auditory_Different	1	left	0.933	35.109	34.253
35.761	1.788	Auditory_Lure	1	left	1.337	37.549	37.098
38.402	1.789	Auditory_Lure	1	left	1.416	40.191	39.818
40.726	1.788	Auditory_Different	1	left	1.233	42.514	41.959
43.317	1.788	Auditory_Different	1	left	0.995	45.105	44.312
50.739	1.788	Visual_Same	1	right	0.996	52.527	51.735
53.28	1.788	Visual_Lure	1	left	0.799	55.068	54.079
55.921	1.789	Visual_Same	1	right	1.682	57.71	57.603
58.361	1.789	Visual_Different	1	left	0.861	60.15	59.222
60.785	1.789	Visual_Different	1	left	0.88	62.574	61.665
63.226	1.789	Visual_Lure	1	left	1.069	65.015	64.295
70.849	1.788	Auditory_Different	1	left	0.794	72.637	71.643
73.44	1.772	Auditory_Different	1	left	0.862	75.212	74.302
75.713	1.789	Auditory_Lure	1	left	1.11	77.502	76.823
78.254	1.789	Auditory_Same	1	right	0.934	80.043	79.188
80.695	1.788	Auditory_Same	1	right	0.833	82.483	81.528
83.336	1.789	Auditory_Different	1	left	0.941	85.125	84.277
90.741	1.789	Visual_Lure	1	left	0.971	92.53	91.712
93.383	1.788	Visual_Lure	1	left	0.798	95.171	94.181
95.923	1.789	Visual_Same	1	right	0.797	97.712	96.72
98.297	1.789	Visual_Different	1	left	0.841	100.086	99.138
100.738	1.789	Visual_Different	1	left	0.761	102.527	101.499
103.329	1.789	Visual_Lure	1	left	1.137	105.118	104.466
110.835	1.788	Auditory_Different	1	left	0.986	112.623	111.821
113.426	1.788	Auditory_Different	1	left	0.994	115.214	114.42
115.816	1.789	Auditory_Same	0	NA	NA	117.605	NA
118.407	1.789	Auditory_Lure	1	left	1.104	120.196	119.511
120.697	1.789	Auditory_Different	1	left	0.925	122.486	121.622
128.237	1.788	Visual_Same	1	right	0.73	130.025	128.967
130.928	1.789	Visual_Different	1	left	0.594	132.717	131.522
133.318	1.789	Visual_Same	1	right	0.888	135.107	134.206
135.709	1.788	Visual_Lure	1	left	0.742	137.497	136.451
138.233	1.789	Visual_Lure	1	left	0.709	140.022	138.942
140.824	1.789	Visual_Different	1	left	0.73	142.613	141.554
143.265	1.788	Visual_Different	1	left	0.782	145.053	144.047
150.787	1.789	Auditory_Lure	1	left	0.759	152.576	151.546
153.378	1.789	Auditory_Different	1	left	1.223	155.167	154.601
155.718	1.789	Auditory_Lure	1	left	0.843	157.507	156.561
158.243	1.788	Auditory_Same	1	right	0.927	160.031	159.17
160.784	1.788	Auditory_Same	1	right	1.055	162.572	161.839
163.324	1.789	Auditory_Different	1	left	1.029	165.113	164.353
170.947	1.789	Visual_Same	1	right	0.785	172.736	171.732
173.321	1.789	Visual_Lure	1	left	0.689	175.11	174.01
175.711	1.789	Visual_Different	1	left	0.84	177.5	176.551
178.252	1.789	Visual_Lure	1	left	0.857	180.041	179.109
180.843	1.789	Visual_Lure	1	left	0.914	182.632	181.757
183.384	1.772	Visual_Different	1	left	0.866	185.156	184.25
185.758	1.789	Visual_Different	1	left	0.92	187.547	186.678
193.448	1.772	Auditory_Lure	1	left	1.085	195.22	194.533
195.721	1.789	Auditory_Lure	1	left	0.763	197.51	196.484
198.412	1.789	Auditory_Same	1	right	0.923	200.201	199.335
200.753	1.788	Auditory_Different	1	left	0.773	202.541	201.526
203.294	1.788	Auditory_Different	1	left	0.814	205.082	204.108
205.818	1.789	Auditory_Lure	1	left	1.115	207.607	206.933
213.24	1.789	Visual_Same	1	right	0.714	215.029	213.954
215.781	1.789	Visual_Same	1	right	0.732	217.57	216.513
218.405	1.789	Visual_Different	1	left	0.657	220.194	219.062
220.846	1.789	Visual_Lure	1	left	0.728	222.635	221.574
223.287	1.788	Visual_Lure	1	left	0.833	225.075	224.12
225.727	1.789	Visual_Same	1	right	0.703	227.516	226.43
233.283	1.789	Auditory_Different	1	left	0.909	235.072	234.192
235.724	1.788	Auditory_Same	1	right	1.215	237.512	236.939
238.415	1.789	Auditory_Lure	1	left	0.975	240.204	239.39
240.856	1.788	Auditory_Same	1	right	1.009	242.644	241.865
243.28	1.788	Auditory_Same	1	right	0.903	245.068	244.183
245.67	1.789	Auditory_Lure	1	left	0.889	247.459	246.559
248.211	1.789	Auditory_Lure	1	left	0.867	250	249.078
255.733	1.789	Visual_Lure	1	left	0.669	257.522	256.402
258.375	1.788	Visual_Different	1	left	0.687	260.163	259.062
260.916	1.788	Visual_Lure	1	left	0.877	262.704	261.793
263.356	1.789	Visual_Same	1	right	0.83	265.145	264.186
265.73	1.789	Visual_Same	1	right	0.635	267.519	266.365
268.17	1.789	Visual_Different	1	left	0.702	269.959	268.872
275.893	1.789	Auditory_Same	1	right	1.141	277.682	277.034
278.317	1.789	Auditory_Same	1	right	1.036	280.106	279.353
280.908	1.789	Auditory_Different	1	left	1.016	282.697	281.924
283.299	1.789	Auditory_Lure	0	right	1.673	285.088	284.972
285.689	1.789	Auditory_Lure	1	left	0.874	287.478	286.563
288.381	1.788	Auditory_Same	1	right	0.958	290.169	289.339
295.836	1.789	Visual_Lure	1	left	0.77	297.625	296.606
298.427	1.789	Visual_Different	1	left	0.886	300.216	299.313
300.718	1.788	Visual_Same	1	right	0.736	302.506	301.454
303.392	1.789	Visual_Different	1	left	0.626	305.181	304.018
305.732	1.789	Visual_Different	1	left	0.653	307.521	306.385
308.324	1.788	Visual_Same	1	right	0.772	310.112	309.096
310.764	1.789	Visual_Same	1	right	0.691	312.553	311.455
318.387	1.789	Auditory_Lure	1	left	0.986	320.176	319.373
320.777	1.789	Auditory_Different	1	left	0.941	322.566	321.718
323.419	1.771	Auditory_Same	1	right	0.903	325.19	324.322
325.742	1.789	Auditory_Different	1	left	0.942	327.531	326.684
328.183	1.788	Auditory_Different	1	left	1.067	329.971	329.25
330.824	1.789	Auditory_Same	1	right	0.902	332.613	331.726
333.265	1.788	Auditory_Same	1	right	1.003	335.053	334.268
340.937	1.789	Visual_Lure	1	left	0.587	342.726	341.524
343.328	1.789	Visual_Same	1	right	0.771	345.117	344.099
345.769	1.771	Visual_Lure	1	left	0.746	347.54	346.515
348.192	1.789	Visual_Different	1	left	0.74	349.981	348.932
350.834	1.788	Visual_Different	1	left	0.743	352.622	351.577
353.174	1.789	Visual_Same	1	right	0.91	354.963	354.084
355.765	1.789	Visual_Same	1	right	0.622	357.554	356.387
363.237	1.789	Auditory_Same	1	right	0.98	365.026	364.217
365.878	1.789	Auditory_Same	1	right	0.864	367.667	366.742
368.403	1.788	Auditory_Lure	1	left	0.833	370.191	369.236
370.793	1.789	Auditory_Different	1	left	0.925	372.582	371.718
373.234	1.788	Auditory_Same	1	right	0.904	375.022	374.138
380.89	1.789	Visual_Different	1	left	0.547	382.679	381.437
383.431	1.772	Visual_Same	1	right	0.744	385.203	384.175
385.754	1.789	Visual_Lure	1	left	0.701	387.543	386.455
388.195	1.789	Visual_Same	1	right	0.556	389.984	388.751
390.736	1.789	Visual_Same	1	right	0.607	392.525	391.343
393.327	1.789	Visual_Lure	1	left	0.729	395.116	394.056
395.751	1.789	Visual_Lure	1	left	0.756	397.54	396.507
403.24	1.789	Auditory_Same	1	right	0.875	405.029	404.115
405.814	1.789	Auditory_Different	1	left	0.7	407.603	406.514
408.405	1.789	Auditory_Same	1	right	0.974	410.194	409.379
410.746	1.788	Auditory_Lure	1	left	0.91	412.534	411.656
413.337	1.788	Auditory_Lure	1	left	0.88	415.125	414.217
415.727	1.789	Auditory_Different	1	left	1.275	417.516	417.002
418.301	1.789	Auditory_Different	1	left	0.899	420.09	419.2
425.941	1.789	Visual_Different	1	left	0.666	427.73	426.607
428.214	1.789	Visual_Different	1	left	0.583	430.003	428.797
430.805	1.789	Visual_Same	1	right	0.679	432.594	431.484
433.346	1.789	Visual_Lure	1	left	0.691	435.135	434.037
435.737	1.788	Visual_Different	1	left	0.811	437.525	436.548
443.326	1.789	Auditory_Same	1	right	0.859	445.115	444.185
445.917	1.789	Auditory_Same	1	right	0.889	447.706	446.806
448.207	1.789	Auditory_Different	1	left	0.738	449.996	448.945
450.748	1.789	Auditory_Same	1	right	0.97	452.537	451.718
453.339	1.789	Auditory_Lure	1	left	1.464	455.128	454.803
460.929	1.788	Visual_Same	1	right	0.638	462.717	461.567
463.269	1.789	Visual_Same	1	right	0.637	465.058	463.906
465.71	1.788	Visual_Different	1	left	0.553	467.498	466.263
468.351	1.788	Visual_Same	1	right	0.741	470.139	469.092
470.875	1.789	Visual_Lure	1	left	0.678	472.664	471.553
478.431	1.788	Auditory_Same	1	right	0.863	480.219	479.294
480.821	1.789	Auditory_Lure	1	left	0.971	482.61	481.792
483.212	1.788	Auditory_Same	1	right	0.864	485	484.076
485.853	1.772	Auditory_Different	1	left	0.759	487.625	486.612
488.227	1.788	Auditory_Different	1	left	0.947	490.015	489.174
490.667	1.789	Auditory_Lure	0	right	1.344	492.456	492.011
498.323	1.789	Visual_Lure	1	left	0.742	500.112	499.065
500.764	1.789	Visual_Lure	1	left	0.793	502.553	501.557
503.405	1.789	Visual_Same	1	right	0.899	505.194	504.304
505.695	1.789	Visual_Lure	1	left	0.799	507.484	506.494
508.286	1.789	Visual_Different	1	left	0.599	510.075	508.885
515.826	1.788	Auditory_Lure	1	left	0.864	517.614	516.69
518.417	1.788	Auditory_Lure	1	left	1.121	520.205	519.538
520.757	1.789	Auditory_Different	1	left	0.951	522.546	521.708
523.298	1.789	Auditory_Same	1	right	0.955	525.087	524.253
525.839	1.788	Auditory_Lure	1	left	0.855	527.627	526.694
533.378	1.789	Visual_Lure	1	left	1.052	535.167	534.43
535.819	1.788	Visual_Lure	1	left	0.591	537.607	536.41
538.209	1.789	Visual_Different	1	left	0.683	539.998	538.892
540.85	1.789	Visual_Same	1	right	0.738	542.639	541.588
543.374	1.789	Visual_Lure	1	left	0.53	545.163	543.904
550.73	1.788	Auditory_Different	1	left	0.794	552.518	551.524
553.421	1.789	Auditory_Different	1	left	0.722	555.21	554.143
555.761	1.772	Auditory_Lure	1	left	0.881	557.533	556.642
558.185	1.789	Auditory_Different	1	left	1.286	559.974	559.471
560.826	1.789	Auditory_Same	1	right	0.92	562.615	561.746
568.282	1.789	Visual_Different	1	left	0.578	570.071	568.86
570.723	1.788	Visual_Same	1	right	0.66	572.511	571.383
573.347	1.789	Visual_Different	1	left	0.577	575.136	573.924
575.788	1.788	Visual_Lure	1	left	0.728	577.576	576.516
578.228	1.789	Visual_Lure	1	left	0.704	580.017	578.932
580.87	1.788	Visual_Same	1	right	0.536	582.658	581.406
588.425	1.789	Auditory_Lure	1	left	1.053	590.214	589.478
590.816	1.789	Auditory_Same	1	right	0.855	592.605	591.671
593.357	1.788	Auditory_Lure	1	left	0.802	595.145	594.159
595.797	1.789	Auditory_Different	1	left	1.013	597.586	596.81
598.221	1.789	Auditory_Different	1	left	1.019	600.01	599.24
600.863	1.788	Auditory_Same	1	right	0.973	602.651	601.836
603.153	1.788	Auditory_Same	1	right	0.961	604.941	604.114
610.826	1.788	Visual_Different	1	left	0.744	612.614	611.57
613.216	1.789	Visual_Different	1	left	0.609	615.005	613.825
615.857	1.789	Visual_Lure	1	left	0.847	617.646	616.704
618.248	1.788	Visual_Different	1	left	0.593	620.036	618.841
620.872	1.789	Visual_Same	1	right	0.782	622.661	621.654
628.428	1.789	Auditory_Different	1	left	0.962	630.217	629.39
630.819	1.788	Auditory_Lure	1	left	0.892	632.607	631.711
633.259	1.789	Auditory_Different	1	left	1.04	635.048	634.299
635.683	1.789	Auditory_Same	1	right	0.817	637.472	636.5
638.324	1.789	Auditory_Same	1	right	0.884	640.113	639.208
640.665	1.788	Auditory_Lure	1	left	0.885	642.453	641.55
643.306	1.788	Auditory_Lure	1	left	0.763	645.094	644.069
650.728	1.789	Visual_Different	1	left	0.59	652.517	651.318
653.369	1.789	Visual_Different	1	left	0.585	655.158	653.954
655.91	1.789	Visual_Lure	1	left	0.649	657.699	656.559
658.284	1.788	Visual_Same	1	right	0.748	660.072	659.032
660.724	1.789	Visual_Same	1	right	0.646	662.513	661.37
663.366	1.788	Visual_Different	1	left	0.71	665.154	664.076
670.821	1.789	Auditory_Different	1	left	0.89	672.61	671.711
673.412	1.789	Auditory_Same	1	right	0.892	675.201	674.304
675.753	1.788	Auditory_Different	1	left	1.07	677.541	676.823
678.193	1.789	Auditory_Lure	1	left	1.217	679.982	679.41
680.784	1.789	Auditory_Lure	1	left	1.226	682.573	682.01
683.208	1.789	Auditory_Same	1	right	0.912	684.997	684.12
690.881	1.789	Visual_Different	1	left	1.199	692.67	692.08
693.322	1.771	Visual_Lure	1	left	0.608	695.093	693.93
695.695	1.789	Visual_Different	1	left	0.711	697.484	696.406
698.236	1.789	Visual_Same	1	right	0.741	700.025	698.977
700.877	1.789	Visual_Same	1	right	0.633	702.666	701.51
703.218	1.788	Visual_Lure	1	left	0.744	705.006	703.962
705.742	1.789	Visual_Lure	1	left	0.568	707.531	706.31
713.381	1.789	Auditory_Lure	1	left	0.906	715.17	714.287
715.906	1.788	Auditory_Lure	1	left	0.778	717.694	716.684
718.196	1.788	Auditory_Same	1	right	0.902	719.984	719.098
720.837	1.789	Auditory_Lure	1	left	0.924	722.626	721.761
723.227	1.789	Auditory_Different	1	left	0.92	725.016	724.147
