"onset"	"trial_type"	"accuracy"	"button"	"response_time"	"duration"	"time_to_offset_alternative_onset"	"time_to_RT_alternative_onset_or_duration"
10.847	"Visual_Different"	0	NA	NA	1.789	12.636	NA
13.237	"Visual_Different"	0	"right"	0.942	1.789	15.026	14.179
15.912	"Visual_Lure"	1	"left"	0.66	1.789	17.701	16.572
18.353	"Visual_Different"	0	"right"	0.796	1.788	20.141	19.149
20.743	"Visual_Same"	0	"left"	0.496	1.789	22.532	21.239
28.449	"Auditory_Different"	1	"left"	0.957	1.789	30.238	29.406
30.873	"Auditory_Different"	1	"left"	0.928	1.789	32.662	31.801
33.264	"Auditory_Lure"	0	"right"	1.341	1.789	35.053	34.605
35.704	"Auditory_Same"	1	"right"	1.03	1.789	37.493	36.734
38.296	"Auditory_Same"	1	"right"	0.973	1.788	40.084	39.269
40.887	"Auditory_Different"	1	"left"	0.958	1.788	42.675	41.845
48.242	"Visual_Same"	1	"right"	0.949	1.789	50.031	49.191
50.883	"Visual_Lure"	0	"right"	0.716	1.789	52.672	51.599
53.424	"Visual_Same"	1	"right"	0.671	1.789	55.213	54.095
55.748	"Visual_Different"	1	"left"	0.614	1.788	57.536	56.362
58.289	"Visual_Different"	1	"left"	0.787	1.788	60.077	59.076
60.729	"Visual_Lure"	1	"left"	0.821	1.789	62.518	61.55
68.285	"Auditory_Lure"	0	NA	NA	1.789	70.074	NA
70.876	"Auditory_Same"	1	"right"	1.106	1.789	72.665	71.982
73.317	"Auditory_Lure"	1	"left"	0.965	1.789	75.106	74.282
75.707	"Auditory_Different"	1	"left"	0.853	1.789	77.496	76.56
78.248	"Auditory_Different"	1	"left"	0.803	1.789	80.037	79.051
80.873	"Auditory_Same"	1	"right"	0.766	1.789	82.662	81.639
83.263	"Auditory_Same"	1	"right"	0.862	1.789	85.052	84.125
90.936	"Visual_Different"	1	"left"	0.715	1.789	92.725	91.651
93.226	"Visual_Different"	1	"left"	0.633	1.789	95.015	93.859
95.868	"Visual_Same"	1	"right"	0.731	1.788	97.656	96.599
98.308	"Visual_Lure"	1	"left"	1.107	1.789	100.097	99.415
100.899	"Visual_Different"	1	"left"	0.839	1.789	102.688	101.738
108.238	"Auditory_Lure"	1	"left"	0.796	1.789	110.027	109.034
110.879	"Auditory_Different"	1	"left"	0.754	1.789	112.668	111.633
113.27	"Auditory_Same"	1	"right"	0.925	1.788	115.058	114.195
115.811	"Auditory_Different"	1	"left"	0.572	1.788	117.599	116.383
118.184	"Auditory_Different"	1	"left"	1.156	1.789	119.973	119.34
120.826	"Auditory_Same"	0	"left"	1.026	1.788	122.614	121.852
123.366	"Auditory_Same"	0	"left"	1.377	1.789	125.155	124.743
130.789	"Visual_Same"	1	"right"	1.746	1.788	132.577	132.535
133.33	"Visual_Lure"	0	"right"	0.876	1.788	135.118	134.206
135.72	"Visual_Different"	1	"left"	0.578	1.789	137.509	136.298
138.361	"Visual_Lure"	1	"left"	0.762	1.772	140.133	139.123
140.685	"Visual_Lure"	1	"left"	1.676	1.789	142.474	142.361
143.276	"Visual_Different"	0	"right"	1.126	1.789	145.065	144.402
145.867	"Visual_Different"	1	"left"	0.845	1.789	147.656	146.712
153.239	"Auditory_Same"	1	"right"	0.915	1.789	155.028	154.154
155.93	"Auditory_Lure"	1	"left"	1.033	1.789	157.719	156.963
158.371	"Auditory_Different"	1	"left"	0.959	1.789	160.16	159.33
160.745	"Auditory_Lure"	1	"left"	1.094	1.788	162.533	161.839
163.286	"Auditory_Lure"	1	"left"	1.265	1.788	165.074	164.551
165.827	"Auditory_Different"	1	"left"	1.176	1.788	167.615	167.003
168.368	"Auditory_Different"	1	"left"	1.091	1.788	170.156	169.459
175.89	"Visual_Lure"	1	"left"	0.827	1.789	177.679	176.717
178.281	"Visual_Different"	1	"left"	0.566	1.788	180.069	178.847
180.922	"Visual_Same"	1	"right"	0.874	1.788	182.71	181.796
183.245	"Visual_Different"	1	"left"	0.553	1.789	185.034	183.798
185.686	"Visual_Different"	1	"left"	0.68	1.789	187.475	186.366
188.327	"Visual_Same"	1	"right"	0.977	1.789	190.116	189.304
190.768	"Visual_Same"	1	"right"	0.805	1.789	192.557	191.573
198.29	"Auditory_Different"	1	"left"	1.372	1.789	200.079	199.662
200.731	"Auditory_Different"	0	NA	NA	1.789	202.52	NA
203.322	"Auditory_Same"	0	"left"	1.424	1.789	205.111	204.746
205.746	"Auditory_Lure"	1	"left"	1.034	1.789	207.535	206.78
208.337	"Auditory_Different"	1	"left"	1.468	1.789	210.126	209.805
215.943	"Visual_Lure"	1	"left"	0.999	1.789	217.732	216.942
218.283	"Visual_Different"	1	"left"	0.56	1.772	220.055	218.843
220.808	"Visual_Lure"	0	"right"	0.622	1.788	222.596	221.43
223.198	"Visual_Same"	1	"right"	1.344	1.789	224.987	224.542
225.839	"Visual_Same"	1	"right"	1.373	1.789	227.628	227.212
228.23	"Visual_Different"	1	"left"	0.704	1.788	230.018	228.934
235.736	"Auditory_Different"	1	"left"	0.894	1.788	237.524	236.63
238.327	"Auditory_Different"	0	"right"	0.896	1.788	240.115	239.223
240.918	"Auditory_Lure"	1	"left"	0.123	1.788	242.706	241.041
243.308	"Auditory_Different"	0	"right"	1.782	1.789	245.097	245.09
245.682	"Auditory_Same"	0	"left"	1.038	1.789	247.471	246.72
253.238	"Visual_Lure"	1	"left"	1.059	1.788	255.026	254.297
255.829	"Visual_Lure"	1	"left"	1.142	1.789	257.618	256.971
258.42	"Visual_Same"	0	"left"	0.967	1.789	260.209	259.387
260.844	"Visual_Different"	1	"left"	0.869	1.789	262.633	261.713
263.184	"Visual_Different"	1	"left"	1.103	1.789	264.973	264.287
265.725	"Visual_Lure"	0	NA	NA	1.789	267.514	NA
273.281	"Auditory_Lure"	1	"left"	1.015	1.789	275.07	274.296
275.872	"Auditory_Different"	1	"left"	1.29	1.789	277.661	277.162
278.413	"Auditory_Lure"	1	"left"	0.983	1.789	280.202	279.396
280.703	"Auditory_Same"	1	"right"	0.911	1.789	282.492	281.614
283.344	"Auditory_Same"	1	"right"	1.204	1.789	285.133	284.548
285.768	"Auditory_Different"	1	"left"	0.974	1.789	287.557	286.742
293.391	"Visual_Different"	1	"left"	0.703	1.789	295.18	294.094
295.932	"Visual_Lure"	1	"left"	1.707	1.789	297.721	297.639
298.306	"Visual_Different"	1	"left"	1.095	1.788	300.094	299.401
300.696	"Visual_Same"	0	"left"	1.556	1.789	302.485	302.252
303.337	"Visual_Same"	0	"left"	0.916	1.789	305.126	304.253
305.878	"Visual_Lure"	1	"left"	1.03	1.789	307.667	306.908
308.219	"Visual_Lure"	1	"left"	1.051	1.772	309.991	309.27
315.942	"Auditory_Same"	1	"right"	1.07	1.788	317.73	317.012
318.265	"Auditory_Lure"	1	"left"	0.741	1.789	320.054	319.006
320.857	"Auditory_Same"	1	"right"	0.702	1.788	322.645	321.559
323.397	"Auditory_Different"	1	"left"	0.909	1.789	325.186	324.306
325.788	"Auditory_Different"	1	"left"	0.836	1.789	327.577	326.624
328.229	"Auditory_Lure"	1	"left"	1.039	1.788	330.017	329.268
335.835	"Visual_Same"	1	"right"	0.773	1.788	337.623	336.608
338.426	"Visual_Same"	1	"right"	0.744	1.788	340.214	339.17
340.716	"Visual_Different"	1	"left"	0.645	1.788	342.504	341.361
343.307	"Visual_Same"	1	"right"	0.564	1.789	345.096	343.871
345.731	"Visual_Lure"	1	"left"	1.108	1.788	347.519	346.839
353.237	"Auditory_Different"	0	NA	NA	1.788	355.025	NA
355.777	"Auditory_Same"	0	NA	NA	1.789	357.566	NA
358.369	"Auditory_Lure"	0	"right"	0.31	1.771	360.14	358.679
360.893	"Auditory_Same"	0	NA	NA	1.788	362.681	NA
363.183	"Auditory_Same"	0	"left"	0.104	1.789	364.972	363.287
365.774	"Auditory_Lure"	1	"left"	0.754	1.789	367.563	366.528
368.365	"Auditory_Lure"	1	"left"	0.794	1.789	370.154	369.159
375.888	"Visual_Same"	1	"right"	1.226	1.788	377.676	377.114
378.278	"Visual_Same"	1	"right"	0.7	1.789	380.067	378.978
380.819	"Visual_Lure"	1	"left"	1.041	1.772	382.591	381.86
383.343	"Visual_Different"	1	"left"	0.81	1.789	385.132	384.153
385.884	"Visual_Same"	0	NA	NA	1.789	387.673	NA
393.29	"Auditory_Same"	1	"right"	1.471	1.788	395.078	394.761
395.881	"Auditory_Same"	1	"right"	0.975	1.772	397.653	396.856
398.204	"Auditory_Different"	1	"left"	0.59	1.789	399.993	398.794
400.795	"Auditory_Same"	1	"right"	0.631	1.789	402.584	401.426
403.386	"Auditory_Lure"	1	"left"	1.089	1.789	405.175	404.475
410.742	"Visual_Different"	1	"left"	0.563	1.788	412.53	411.305
413.366	"Visual_Same"	1	"right"	1.365	1.789	415.155	414.731
415.757	"Visual_Lure"	1	"left"	0.789	1.788	417.545	416.546
418.398	"Visual_Same"	1	"right"	1.078	1.789	420.187	419.476
420.788	"Visual_Same"	1	"right"	0.681	1.789	422.577	421.469
423.179	"Visual_Lure"	1	"left"	0.871	1.772	424.951	424.05
425.753	"Visual_Lure"	1	"left"	0.845	1.789	427.542	426.598
433.242	"Auditory_Lure"	0	NA	NA	1.789	435.031	NA
435.817	"Auditory_Lure"	1	"left"	0.901	1.788	437.605	436.718
438.257	"Auditory_Same"	0	NA	NA	1.789	440.046	NA
440.848	"Auditory_Different"	0	"right"	0.844	1.789	442.637	441.692
443.289	"Auditory_Different"	1	"left"	1.387	1.789	445.078	444.676
445.88	"Auditory_Lure"	1	"left"	1.184	1.789	447.669	447.064
453.235	"Visual_Different"	1	"left"	0.842	1.789	455.024	454.077
455.927	"Visual_Same"	1	"right"	0.957	1.788	457.715	456.884
458.351	"Visual_Different"	1	"left"	0.444	1.788	460.139	458.795
460.741	"Visual_Lure"	1	"left"	0.42	1.789	462.53	461.161
463.382	"Visual_Lure"	1	"left"	1.247	1.789	465.171	464.629
465.773	"Visual_Same"	1	"right"	0.845	1.788	467.561	466.618
473.228	"Auditory_Same"	1	"right"	1.319	1.789	475.017	474.547
475.769	"Auditory_Same"	1	"right"	0.949	1.789	477.558	476.718
478.36	"Auditory_Different"	1	"left"	1.041	1.789	480.149	479.401
480.801	"Auditory_Lure"	0	"right"	0.668	1.789	482.59	481.469
483.225	"Auditory_Lure"	1	"left"	1.049	1.788	485.013	484.274
485.866	"Auditory_Same"	0	"left"	1.053	1.789	487.655	486.919
493.288	"Visual_Lure"	1	"left"	0.83	1.789	495.077	494.118
495.863	"Visual_Lure"	1	"left"	0.762	1.788	497.651	496.625
498.203	"Visual_Different"	1	"left"	0.716	1.789	499.992	498.919
500.794	"Visual_Same"	1	"right"	0.55	1.789	502.583	501.344
503.335	"Visual_Lure"	1	"left"	0.845	1.789	505.124	504.18
510.74	"Auditory_Different"	1	"left"	1.354	1.772	512.512	512.094
513.365	"Auditory_Same"	1	"right"	0.635	1.788	515.153	514
515.805	"Auditory_Different"	1	"left"	1.033	1.789	517.594	516.838
518.396	"Auditory_Lure"	1	"left"	1.338	1.789	520.185	519.734
520.737	"Auditory_Lure"	1	"left"	1.287	1.789	522.526	522.024
523.161	"Auditory_Same"	1	"right"	1.335	1.788	524.949	524.496
530.783	"Visual_Different"	0	NA	NA	1.789	532.572	NA
533.425	"Visual_Different"	0	NA	NA	1.788	535.213	NA
535.698	"Visual_Lure"	0	NA	NA	1.789	537.487	NA
538.39	"Visual_Same"	0	NA	NA	1.788	540.178	NA
540.73	"Visual_Same"	0	NA	NA	1.789	542.519	NA
543.321	"Visual_Different"	0	NA	NA	1.789	545.11	NA
-46.398	"Auditory_Same"	0	NA	NA	0	-46.398	NA
