"onset"	"trial_type"	"accuracy"	"button"	"response_time"	"duration"	"time_to_offset_alternative_onset"	"time_to_RT_alternative_onset_or_duration"
10.886	"Visual_Different"	0	NA	NA	1.789	12.675	NA
13.227	"Visual_Different"	0	NA	NA	1.788	15.015	NA
15.918	"Visual_Lure"	0	"right"	0.551	1.789	17.707	16.469
18.392	"Visual_Same"	1	"right"	0.684	1.655	20.047	19.076
20.799	"Visual_Same"	1	"right"	0.611	1.789	22.588	21.41
23.223	"Visual_Different"	0	NA	NA	1.789	25.012	NA
30.846	"Auditory_Lure"	0	"right"	0.658	1.789	32.635	31.504
33.287	"Auditory_Different"	0	NA	NA	1.788	35.075	NA
35.727	"Auditory_Lure"	1	"left"	1.551	1.789	37.516	37.278
38.402	"Auditory_Same"	1	"right"	1.03	1.789	40.191	39.432
40.843	"Auditory_Same"	1	"right"	0.794	1.788	42.631	41.637
43.233	"Auditory_Different"	1	"left"	1.573	1.789	45.022	44.806
50.739	"Visual_Different"	1	"left"	1.414	1.789	52.528	52.153
53.33	"Visual_Same"	1	"right"	0.942	1.789	55.119	54.272
55.921	"Visual_Lure"	1	"left"	1.088	1.789	57.71	57.009
58.362	"Visual_Same"	1	"right"	0.678	1.788	60.15	59.04
60.735	"Visual_Same"	1	"right"	0.828	1.789	62.524	61.563
63.276	"Visual_Lure"	1	"left"	1.282	1.789	65.065	64.558
65.868	"Visual_Lure"	1	"left"	1.353	1.788	67.656	67.221
73.44	"Auditory_Same"	1	"right"	1.225	1.789	75.229	74.665
75.881	"Auditory_Same"	1	"right"	0.908	1.788	77.669	76.789
78.321	"Auditory_Lure"	1	"left"	1.432	1.789	80.11	79.753
80.712	"Auditory_Different"	1	"left"	1.413	1.772	82.484	82.125
83.286	"Auditory_Same"	1	"right"	0.975	1.789	85.075	84.261
90.742	"Visual_Lure"	1	"left"	1.089	1.789	92.531	91.831
93.383	"Visual_Different"	1	"left"	1.354	1.789	95.172	94.737
95.824	"Visual_Lure"	1	"left"	0.95	1.788	97.612	96.774
98.348	"Visual_Same"	0	"left"	1.217	1.789	100.137	99.565
100.889	"Visual_Same"	0	NA	NA	1.789	102.678	NA
103.229	"Visual_Different"	1	"left"	1.184	1.789	105.018	104.413
110.785	"Auditory_Same"	1	"right"	1.492	1.789	112.574	112.277
113.226	"Auditory_Lure"	1	"left"	1.395	1.788	115.014	114.621
115.867	"Auditory_Different"	1	"left"	1.473	1.789	117.656	117.34
118.408	"Auditory_Lure"	1	"left"	1.368	1.789	120.197	119.776
120.849	"Auditory_Lure"	1	"left"	1.575	1.772	122.621	122.424
123.373	"Auditory_Different"	0	"right"	0.875	1.788	125.161	124.248
125.713	"Auditory_Different"	1	"left"	1.19	1.789	127.502	126.903
133.236	"Visual_Lure"	0	NA	NA	1.788	135.024	NA
135.877	"Visual_Lure"	1	"left"	1.046	1.789	137.666	136.923
138.267	"Visual_Same"	1	"right"	1.187	1.789	140.056	139.454
140.808	"Visual_Different"	1	"left"	1.05	1.789	142.597	141.858
143.182	"Visual_Different"	1	"left"	0.964	1.789	144.971	144.146
145.873	"Visual_Lure"	0	NA	NA	1.789	147.662	NA
153.245	"Auditory_Different"	1	"left"	1.107	1.789	155.034	154.352
155.836	"Auditory_Same"	1	"right"	0.804	1.772	157.608	156.64
158.361	"Auditory_Lure"	0	"right"	0.713	1.788	160.149	159.074
160.801	"Auditory_Same"	1	"right"	0.843	1.789	162.59	161.644
163.192	"Auditory_Same"	1	"right"	0.935	1.789	164.981	164.127
165.733	"Auditory_Lure"	1	"left"	1.155	1.788	167.521	166.888
168.374	"Auditory_Lure"	1	"left"	1.418	1.772	170.146	169.792
175.746	"Visual_Lure"	1	"left"	0.973	1.789	177.535	176.719
178.27	"Visual_Lure"	1	"left"	0.884	1.789	180.059	179.154
180.861	"Visual_Different"	0	"right"	1.251	1.789	182.65	182.112
183.302	"Visual_Same"	0	"left"	1.6	1.789	185.091	184.902
185.893	"Visual_Lure"	1	"left"	1.223	1.789	187.682	187.116
193.232	"Auditory_Same"	1	"right"	0.723	1.788	195.02	193.955
195.923	"Auditory_Different"	1	"left"	0.942	1.789	197.712	196.865
198.364	"Auditory_Same"	1	"right"	0.877	1.788	200.152	199.241
200.804	"Auditory_Lure"	1	"left"	0.999	1.789	202.593	201.803
203.245	"Auditory_Lure"	1	"left"	1.104	1.789	205.034	204.349
205.869	"Auditory_Different"	1	"left"	1.139	1.789	207.658	207.008
208.31	"Auditory_Different"	1	"left"	1.079	1.789	210.099	209.389
215.782	"Visual_Same"	0	NA	NA	1.789	217.571	NA
218.323	"Visual_Same"	1	"right"	1.004	1.789	220.112	219.327
220.714	"Visual_Different"	0	NA	NA	1.789	222.503	NA
223.355	"Visual_Lure"	1	"left"	0.918	1.789	225.144	224.273
225.896	"Visual_Lure"	1	"left"	0.909	1.789	227.685	226.805
228.27	"Visual_Same"	1	"right"	1.205	1.788	230.058	229.475
235.792	"Auditory_Different"	1	"left"	1.25	1.789	237.581	237.042
238.233	"Auditory_Lure"	1	"left"	1.332	1.789	240.022	239.565
240.807	"Auditory_Different"	1	"left"	1.458	1.789	242.596	242.265
243.398	"Auditory_Same"	0	"left"	1.176	1.789	245.187	244.574
245.839	"Auditory_Same"	0	"left"	0.988	1.789	247.628	246.827
248.179	"Auditory_Lure"	0	NA	NA	1.789	249.968	NA
250.703	"Auditory_Lure"	1	"left"	1.581	1.789	252.492	252.284
258.393	"Visual_Same"	0	"left"	1.127	1.789	260.182	259.52
260.934	"Visual_Same"	1	"right"	1.094	1.789	262.723	262.028
263.208	"Visual_Different"	1	"left"	0.894	1.788	264.996	264.102
265.748	"Visual_Same"	1	"right"	1.175	1.789	267.537	266.923
268.189	"Visual_Lure"	1	"left"	1.326	1.789	269.978	269.515
275.845	"Auditory_Different"	0	NA	NA	1.789	277.634	NA
278.219	"Auditory_Same"	1	"right"	1.385	1.789	280.008	279.604
280.81	"Auditory_Different"	1	"left"	1.027	1.789	282.599	281.837
283.351	"Auditory_Lure"	1	"left"	1.247	1.789	285.14	284.598
285.892	"Auditory_Lure"	1	"left"	1.229	1.789	287.681	287.121
288.232	"Auditory_Same"	1	"right"	0.951	1.789	290.021	289.183
295.838	"Visual_Same"	1	"right"	0.972	1.789	297.627	296.81
298.279	"Visual_Lure"	1	"left"	0.899	1.789	300.068	299.178
300.87	"Visual_Same"	1	"right"	1.072	1.789	302.659	301.942
303.394	"Visual_Different"	1	"left"	1.106	1.789	305.183	304.5
305.835	"Visual_Different"	0	NA	NA	1.789	307.624	NA
308.276	"Visual_Lure"	0	"right"	0.349	1.788	310.064	308.625
315.882	"Auditory_Different"	1	"left"	1.688	1.788	317.67	317.57
318.272	"Auditory_Different"	0	NA	NA	1.789	320.061	NA
320.913	"Auditory_Same"	1	"right"	1.676	1.789	322.702	322.589
323.204	"Auditory_Lure"	1	"left"	1.366	1.788	324.992	324.57
325.795	"Auditory_Different"	1	"left"	1.606	1.772	327.567	327.401
333.434	"Visual_Different"	0	"right"	1.312	1.789	335.223	334.746
335.774	"Visual_Same"	1	"right"	1.209	1.789	337.563	336.983
338.215	"Visual_Different"	1	"left"	1.009	1.789	340.004	339.224
340.906	"Visual_Lure"	1	"left"	1.082	1.789	342.695	341.988
343.23	"Visual_Lure"	1	"left"	0.968	1.789	345.019	344.198
345.821	"Visual_Same"	1	"right"	1.112	1.789	347.61	346.933
353.444	"Auditory_Lure"	1	"left"	1.101	1.789	355.233	354.545
355.818	"Auditory_Different"	1	"left"	1.129	1.788	357.606	356.947
358.258	"Auditory_Same"	1	"right"	1.339	1.789	360.047	359.597
360.849	"Auditory_Different"	0	"right"	1.398	1.789	362.638	362.247
363.19	"Auditory_Different"	1	"left"	1.14	1.788	364.978	364.33
365.881	"Auditory_Same"	1	"right"	1.14	1.789	367.67	367.021
368.155	"Auditory_Same"	1	"right"	0.974	1.788	369.943	369.129
375.844	"Visual_Lure"	1	"left"	0.865	1.789	377.633	376.709
378.218	"Visual_Different"	0	"right"	1.39	1.789	380.007	379.608
380.809	"Visual_Same"	1	"right"	1.064	1.789	382.598	381.873
383.2	"Visual_Different"	0	"right"	1.16	1.788	384.988	384.36
385.741	"Visual_Different"	1	"left"	1.11	1.788	387.529	386.851
388.382	"Visual_Same"	1	"right"	1.361	1.788	390.17	389.743
390.806	"Visual_Same"	1	"right"	0.683	1.788	392.594	391.489
398.395	"Auditory_Lure"	1	"left"	1.235	1.789	400.184	399.63
400.819	"Auditory_Lure"	1	"left"	1.071	1.789	402.608	401.89
403.26	"Auditory_Same"	1	"right"	1.011	1.788	405.048	404.271
405.901	"Auditory_Different"	0	"right"	1.569	1.789	407.69	407.47
408.241	"Auditory_Different"	1	"left"	1.364	1.789	410.03	409.605
410.816	"Auditory_Lure"	1	"left"	1.221	1.788	412.604	412.037
418.238	"Visual_Same"	1	"right"	0.712	1.788	420.026	418.95
420.829	"Visual_Lure"	1	"left"	1.101	1.788	422.617	421.93
423.42	"Visual_Different"	1	"left"	1.183	1.772	425.192	424.603
425.844	"Visual_Lure"	1	"left"	0.909	1.788	427.632	426.753
428.234	"Visual_Lure"	1	"left"	1.192	1.789	430.023	429.426
430.775	"Visual_Different"	1	"left"	0.827	1.789	432.564	431.602
433.316	"Visual_Different"	0	"right"	1.288	1.789	435.105	434.604
440.839	"Auditory_Same"	1	"right"	1.299	1.788	442.627	442.138
443.229	"Auditory_Lure"	1	"left"	0.929	1.789	445.018	444.158
445.904	"Auditory_Same"	1	"right"	1.007	1.788	447.692	446.911
448.294	"Auditory_Different"	0	"right"	1.207	1.789	450.083	449.501
450.735	"Auditory_Different"	1	"left"	1.457	1.789	452.524	452.192
453.326	"Auditory_Lure"	1	"left"	1.093	1.789	455.115	454.419
460.932	"Visual_Lure"	1	"left"	0.89	1.789	462.721	461.822
463.222	"Visual_Lure"	1	"left"	1.281	1.789	465.011	464.503
465.763	"Visual_Same"	1	"right"	0.9	1.789	467.552	466.663
468.204	"Visual_Lure"	1	"left"	1.014	1.772	469.976	469.218
470.878	"Visual_Different"	0	"right"	1.222	1.789	472.667	472.1
478.234	"Auditory_Same"	1	"right"	1.512	1.788	480.022	479.746
480.775	"Auditory_Same"	1	"right"	0.901	1.788	482.563	481.676
483.316	"Auditory_Different"	1	"left"	1.169	1.788	485.104	484.485
485.689	"Auditory_Lure"	1	"left"	1.429	1.789	487.478	487.118
488.331	"Auditory_Lure"	1	"left"	0.989	1.788	490.119	489.32
490.872	"Auditory_Same"	1	"right"	1.004	1.788	492.66	491.876
498.377	"Visual_Different"	0	"right"	1.419	1.789	500.166	499.796
500.818	"Visual_Different"	1	"left"	0.776	1.789	502.607	501.594
503.259	"Visual_Lure"	0	"right"	0.881	1.788	505.047	504.14
505.85	"Visual_Different"	1	"left"	1.306	1.788	507.638	507.156
508.24	"Visual_Same"	0	"left"	1.75	1.789	510.029	509.99
515.829	"Auditory_Same"	1	"right"	0.816	1.789	517.618	516.645
518.421	"Auditory_Same"	1	"right"	0.957	1.788	520.209	519.378
520.761	"Auditory_Different"	1	"left"	1.201	1.789	522.55	521.962
523.352	"Auditory_Same"	1	"right"	0.688	1.789	525.141	524.04
525.676	"Auditory_Lure"	1	"left"	0.959	1.788	527.464	526.635
533.332	"Visual_Different"	1	"left"	1.107	1.788	535.12	534.439
535.923	"Visual_Lure"	1	"left"	0.884	1.789	537.712	536.807
538.213	"Visual_Different"	1	"left"	1.696	1.789	540.002	539.909
540.904	"Visual_Same"	1	"right"	1.086	1.772	542.676	541.99
543.278	"Visual_Same"	1	"right"	1.021	1.789	545.067	544.299
545.719	"Visual_Lure"	1	"left"	0.774	1.789	547.508	546.493
548.16	"Visual_Lure"	1	"left"	0.998	1.788	549.948	549.158
555.832	"Auditory_Lure"	1	"left"	0.953	1.789	557.621	556.785
558.424	"Auditory_Lure"	1	"left"	1	1.788	560.212	559.424
560.764	"Auditory_Same"	1	"right"	0.938	1.789	562.553	561.702
563.355	"Auditory_Lure"	1	"left"	0.784	1.772	565.127	564.139
565.679	"Auditory_Different"	1	"left"	1.192	1.788	567.467	566.871
573.385	"Visual_Different"	0	"right"	1.503	1.789	575.174	574.888
575.725	"Visual_Different"	0	NA	NA	1.789	577.514	NA
578.249	"Visual_Same"	0	"left"	0.31	1.789	580.038	578.559
580.841	"Visual_Lure"	1	"left"	0.816	1.788	582.629	581.657
583.381	"Visual_Different"	1	"left"	1.056	1.789	585.17	584.437
590.787	"Auditory_Different"	1	"left"	0.885	1.789	592.576	591.672
593.428	"Auditory_Different"	1	"left"	1.008	1.789	595.217	594.436
595.702	"Auditory_Lure"	1	"left"	0.927	1.788	597.49	596.629
598.293	"Auditory_Same"	1	"right"	0.97	1.788	600.081	599.263
600.834	"Auditory_Same"	1	"right"	0.859	1.788	602.622	601.693
603.274	"Auditory_Different"	1	"left"	1.155	1.789	605.063	604.429
610.83	"Visual_Same"	1	"right"	0.92	1.789	612.619	611.75
613.421	"Visual_Same"	1	"right"	0.707	1.789	615.21	614.128
615.812	"Visual_Lure"	1	"left"	0.86	1.788	617.6	616.672
618.252	"Visual_Different"	1	"left"	1.22	1.789	620.041	619.472
620.827	"Visual_Same"	1	"right"	0.906	1.788	622.615	621.733
628.282	"Auditory_Different"	1	"left"	1.181	1.789	630.071	629.463
630.924	"Auditory_Different"	1	"left"	1.164	1.788	632.712	632.088
633.364	"Auditory_Lure"	1	"left"	1.36	1.789	635.153	634.724
635.688	"Auditory_Different"	1	"left"	1.134	1.789	637.477	636.822
638.279	"Auditory_Same"	1	"right"	0.936	1.789	640.068	639.215
645.735	"Visual_Same"	1	"right"	0.665	1.788	647.523	646.4
648.276	"Visual_Different"	1	"left"	0.974	1.788	650.064	649.25
650.699	"Visual_Same"	1	"right"	0.739	1.789	652.488	651.438
653.291	"Visual_Lure"	0	"right"	1.244	1.788	655.079	654.535
655.831	"Visual_Lure"	1	"left"	0.907	1.789	657.62	656.738
658.372	"Visual_Different"	1	"left"	1.018	1.789	660.161	659.39
660.813	"Visual_Different"	1	"left"	0.717	1.789	662.602	661.53
668.235	"Auditory_Lure"	1	"left"	0.955	1.789	670.024	669.19
670.876	"Auditory_Lure"	1	"left"	0.998	1.789	672.665	671.874
673.401	"Auditory_Different"	1	"left"	1.24	1.788	675.189	674.641
675.741	"Auditory_Same"	1	"right"	0.89	1.789	677.53	676.631
678.182	"Auditory_Lure"	1	"left"	1.097	1.788	679.97	679.279
685.738	"Visual_Lure"	1	"left"	0.932	1.788	687.526	686.67
688.262	"Visual_Same"	1	"right"	0.584	1.788	690.05	688.846
690.803	"Visual_Lure"	1	"left"	0.806	1.788	692.591	691.609
693.394	"Visual_Different"	1	"left"	0.807	1.788	695.182	694.201
695.784	"Visual_Different"	1	"left"	1.428	1.789	697.573	697.212
698.175	"Visual_Same"	1	"right"	0.954	1.788	699.963	699.129
700.699	"Visual_Same"	1	"right"	1.009	1.789	702.488	701.708
708.389	"Auditory_Lure"	1	"left"	1.081	1.788	710.177	709.47
710.812	"Auditory_Same"	1	"right"	0.806	1.789	712.601	711.618
713.253	"Auditory_Lure"	1	"left"	0.888	1.789	715.042	714.141
715.894	"Auditory_Different"	1	"left"	1.022	1.789	717.683	716.916
718.285	"Auditory_Different"	1	"left"	0.973	1.788	720.073	719.258
720.876	"Auditory_Same"	1	"right"	0.883	1.789	722.665	721.759
723.2	"Auditory_Same"	1	"right"	0.887	1.788	724.988	724.087
