onset	duration	trial_type	accuracy	button	response_time	trial_type_less_granular	time_to_offset_alternative_onset	time_to_RT_alternative_onset_or_duration
10.38	0.034	recently_learned_faces_baseline	0	NA	NA	recently_learned_faces_baseline	10.381	NA
11.233	2.524	recently_learned_faces_baseline	0	NA	NA	recently_learned_faces_baseline	13.727	NA
14.927	2.508	famous_faces_baseline	0	NA	NA	famous_faces_baseline	17.416	NA
18.321	2.507	famous_faces_baseline	1	right	1.59	famous_faces_baseline	20.804	19.911
21.865	2.507	famous_faces_false_combination	1	right	1.943	famous_faces	24.343	23.808
25.241	2.508	famous_faces_correct_combination	1	left	1.757	famous_faces	27.73	26.998
28.785	2.508	recently_learned_faces_false_combination	1	right	1.313	recently_learned_faces	31.269	30.098
32.179	2.507	recently_learned_faces_false_combination	1	right	1.399	recently_learned_faces	34.657	33.578
35.806	2.508	famous_faces_false_combination	1	right	1.428	famous_faces	38.296	37.234
39.35	2.507	famous_faces_baseline	1	left	1.047	famous_faces_baseline	41.834	40.397
42.677	2.524	recently_learned_faces_baseline	1	left	0.691	recently_learned_faces_baseline	45.171	43.368
46.271	2.507	famous_faces_false_combination	1	right	1.189	famous_faces	48.76	47.46
49.814	2.508	famous_faces_baseline	1	right	1.268	famous_faces_baseline	52.298	51.082
55.348	2.507	famous_faces_baseline	1	right	0.833	famous_faces_baseline	57.839	56.181
58.942	2.507	recently_learned_faces_correct_combination	1	left	1.855	recently_learned_faces	61.428	60.797
62.235	2.507	recently_learned_faces_false_combination	1	right	1.01	recently_learned_faces	64.715	63.245
65.862	2.508	famous_faces_correct_combination	1	left	1.882	famous_faces	68.354	67.744
69.256	2.507	famous_faces_false_combination	1	right	0.827	famous_faces	71.741	70.083
72.8	2.507	recently_learned_faces_false_combination	1	right	1.538	recently_learned_faces	75.28	74.338
76.377	2.507	famous_faces_false_combination	1	right	1.649	famous_faces	78.869	78.026
79.821	2.507	recently_learned_faces_false_combination	1	right	1.65	recently_learned_faces	82.307	81.471
83.164	2.507	recently_learned_faces_false_combination	1	right	2.28	recently_learned_faces	85.644	85.444
86.691	2.508	famous_faces_baseline	1	right	1.086	famous_faces_baseline	89.182	87.777
90.235	2.507	famous_faces_baseline	1	right	1.232	famous_faces_baseline	92.721	91.467
93.779	2.507	famous_faces_false_combination	1	right	0.853	famous_faces	96.26	94.632
97.306	2.508	recently_learned_faces_false_combination	1	right	1.966	recently_learned_faces	99.798	99.272
102.956	2.508	recently_learned_faces_correct_combination	1	left	1.399	recently_learned_faces	105.437	104.355
106.283	2.507	famous_faces_correct_combination	1	left	1.105	famous_faces	108.774	107.388
109.877	2.507	recently_learned_faces_correct_combination	1	left	0.817	recently_learned_faces	112.363	110.694
113.32	2.508	recently_learned_faces_false_combination	1	right	1.712	recently_learned_faces	115.801	115.032
116.697	2.508	recently_learned_faces_correct_combination	1	left	0.777	recently_learned_faces	119.189	117.474
120.392	2.507	famous_faces_correct_combination	1	left	1.18	famous_faces	122.878	121.572
123.835	2.508	famous_faces_correct_combination	1	left	1.015	famous_faces	126.316	124.85
127.262	2.507	recently_learned_faces_correct_combination	1	left	0.728	recently_learned_faces	129.754	127.99
130.706	2.507	famous_faces_baseline	1	left	1.278	famous_faces_baseline	133.192	131.984
134.149	2.508	recently_learned_faces_baseline	1	right	0.9	recently_learned_faces_baseline	136.63	135.049
137.726	2.525	famous_faces_baseline	1	left	1.209	famous_faces_baseline	140.219	138.935
141.12	2.507	famous_faces_correct_combination	1	left	0.849	famous_faces	143.607	141.969
144.764	2.508	recently_learned_faces_correct_combination	1	left	1.205	recently_learned_faces	147.246	145.969
150.297	2.508	famous_faces_baseline	1	right	0.911	famous_faces_baseline	152.785	151.208
153.741	2.507	famous_faces_correct_combination	1	left	0.998	famous_faces	156.223	154.739
157.368	2.525	famous_faces_baseline	1	right	0.807	famous_faces_baseline	159.862	158.175
160.912	2.508	recently_learned_faces_correct_combination	1	left	0.739	recently_learned_faces	163.4	161.651
164.306	2.507	recently_learned_faces_baseline	1	left	1.317	recently_learned_faces_baseline	166.788	165.623
167.682	2.525	recently_learned_faces_correct_combination	1	left	0.842	recently_learned_faces	170.176	168.524
171.327	2.507	recently_learned_faces_correct_combination	1	left	0.799	recently_learned_faces	173.815	172.126
174.72	2.508	recently_learned_faces_correct_combination	1	left	0.988	recently_learned_faces	177.202	175.708
178.348	2.524	famous_faces_false_combination	1	right	0.988	famous_faces	180.841	179.336
181.741	2.508	recently_learned_faces_baseline	1	left	1.018	recently_learned_faces_baseline	184.229	182.759
185.185	2.507	famous_faces_false_combination	1	right	1.023	famous_faces	187.667	186.208
188.762	2.524	famous_faces_false_combination	1	right	1.032	famous_faces	191.256	189.794
192.306	2.507	famous_faces_baseline	0	left	1.133	famous_faces_baseline	194.794	193.439
197.806	2.507	recently_learned_faces_false_combination	1	right	1.574	recently_learned_faces	200.284	199.38
201.433	2.508	famous_faces_false_combination	1	right	1.283	famous_faces	203.923	202.716
204.827	2.507	recently_learned_faces_correct_combination	1	left	1.355	recently_learned_faces	207.311	206.182
208.37	2.508	famous_faces_false_combination	1	right	1.19	famous_faces	210.85	209.56
211.697	2.507	famous_faces_baseline	1	left	1.011	famous_faces_baseline	214.187	212.708
215.291	2.507	recently_learned_faces_false_combination	1	right	1.897	recently_learned_faces	217.776	217.188
218.885	2.508	recently_learned_faces_false_combination	1	right	1.066	recently_learned_faces	221.365	219.951
222.212	2.507	famous_faces_correct_combination	1	left	1.259	famous_faces	224.702	223.471
225.655	2.508	recently_learned_faces_baseline	1	right	0.922	recently_learned_faces_baseline	228.14	226.577
229.299	2.508	famous_faces_baseline	1	right	0.813	famous_faces_baseline	231.779	230.112
232.626	2.507	recently_learned_faces_baseline	1	left	1.303	recently_learned_faces_baseline	235.116	233.929
236.32	2.508	recently_learned_faces_baseline	1	right	0.937	recently_learned_faces_baseline	238.805	237.257
239.714	2.507	recently_learned_faces_false_combination	0	left	1.084	recently_learned_faces	242.193	240.798
245.247	2.507	recently_learned_faces_baseline	1	right	1.101	recently_learned_faces_baseline	247.733	246.348
248.891	2.508	famous_faces_correct_combination	1	left	0.906	famous_faces	251.372	249.797
252.268	2.507	famous_faces_correct_combination	1	left	1.065	famous_faces	254.759	253.333
255.812	2.507	famous_faces_baseline	1	right	0.717	famous_faces_baseline	258.298	256.529
259.406	2.507	recently_learned_faces_correct_combination	1	left	1.696	recently_learned_faces	261.887	261.102
262.682	2.508	recently_learned_faces_correct_combination	1	left	0.833	recently_learned_faces	265.174	263.515
266.226	2.508	famous_faces_correct_combination	1	left	0.836	famous_faces	268.712	267.062
269.77	2.508	famous_faces_false_combination	1	right	1.033	famous_faces	272.251	270.803
273.347	2.525	famous_faces_correct_combination	1	left	1.275	famous_faces	275.84	274.622
276.791	2.507	famous_faces_baseline	1	left	1.299	famous_faces_baseline	279.278	278.09
280.184	2.508	recently_learned_faces_correct_combination	1	left	0.897	recently_learned_faces	282.665	281.081
283.611	2.508	famous_faces_false_combination	1	right	0.887	famous_faces	286.103	284.498
287.205	2.508	recently_learned_faces_correct_combination	0	right	1.461	recently_learned_faces	289.692	288.666
292.789	2.524	recently_learned_faces_correct_combination	1	left	0.796	recently_learned_faces	295.281	293.585
296.232	2.508	famous_faces_false_combination	0	NA	NA	famous_faces	298.719	NA
299.826	2.508	famous_faces_false_combination	1	right	1.16	famous_faces	302.308	300.986
303.404	2.524	recently_learned_faces_baseline	1	right	1.268	recently_learned_faces_baseline	305.897	304.672
306.847	2.508	famous_faces_correct_combination	1	left	0.922	famous_faces	309.335	307.769
310.191	2.507	recently_learned_faces_baseline	1	left	1.343	recently_learned_faces_baseline	312.672	311.534
313.868	2.508	famous_faces_correct_combination	1	left	0.869	famous_faces	316.361	314.737
317.312	2.507	recently_learned_faces_correct_combination	1	left	0.826	recently_learned_faces	319.799	318.138
320.755	2.508	recently_learned_faces_false_combination	1	right	0.97	recently_learned_faces	323.237	321.725
324.182	2.524	recently_learned_faces_false_combination	0	NA	NA	recently_learned_faces	326.675	NA
327.776	2.508	recently_learned_faces_correct_combination	1	left	1.11	recently_learned_faces	330.264	328.886
331.17	2.507	recently_learned_faces_baseline	1	right	0.91	recently_learned_faces_baseline	333.651	332.08
334.597	2.507	famous_faces_correct_combination	1	left	1.078	famous_faces	337.089	335.675
340.297	2.507	recently_learned_faces_baseline	1	left	1.567	recently_learned_faces_baseline	342.78	341.864
343.874	2.524	recently_learned_faces_baseline	1	right	1.137	recently_learned_faces_baseline	346.369	345.011
347.418	2.508	famous_faces_false_combination	1	right	1.626	famous_faces	349.907	349.044
350.812	2.507	recently_learned_faces_correct_combination	1	left	0.813	recently_learned_faces	353.295	351.625
354.188	2.525	famous_faces_false_combination	1	right	1.011	famous_faces	356.683	355.199
357.782	2.508	recently_learned_faces_baseline	1	right	0.955	recently_learned_faces_baseline	360.272	358.737
361.176	2.507	recently_learned_faces_baseline	1	left	1.254	recently_learned_faces_baseline	363.66	362.43
364.82	2.508	recently_learned_faces_false_combination	1	right	1.161	recently_learned_faces	367.299	365.981
368.197	2.507	famous_faces_false_combination	1	right	0.89	famous_faces	370.686	369.087
371.841	2.507	famous_faces_correct_combination	1	left	1.658	famous_faces	374.325	373.499
375.234	2.508	famous_faces_false_combination	1	right	0.919	famous_faces	377.713	376.153
378.812	2.507	recently_learned_faces_baseline	1	right	0.967	recently_learned_faces_baseline	381.302	379.779
382.255	2.508	recently_learned_faces_false_combination	1	right	1.787	recently_learned_faces	384.74	384.042
387.889	2.507	recently_learned_faces_baseline	0	right	1.345	recently_learned_faces_baseline	390.38	389.234
391.232	2.508	famous_faces_false_combination	1	right	1.679	famous_faces	393.717	392.911
394.776	2.507	famous_faces_correct_combination	1	left	0.925	famous_faces	397.255	395.701
398.303	2.508	recently_learned_faces_baseline	1	right	0.952	recently_learned_faces_baseline	400.794	399.255
401.897	2.508	recently_learned_faces_correct_combination	0	right	1.561	recently_learned_faces	404.383	403.458
405.241	2.507	famous_faces_correct_combination	1	left	1.288	famous_faces	407.72	406.529
408.818	2.507	recently_learned_faces_false_combination	0	NA	NA	recently_learned_faces	411.309	NA
412.161	2.508	famous_faces_correct_combination	1	left	1.134	famous_faces	414.646	413.295
415.855	2.508	famous_faces_false_combination	1	right	1.181	famous_faces	418.335	417.036
419.232	2.508	famous_faces_baseline	1	right	1.024	famous_faces_baseline	421.723	420.256
422.626	2.507	famous_faces_correct_combination	1	left	1.043	famous_faces	425.111	423.669
426.22	2.507	famous_faces_baseline	1	right	0.767	famous_faces_baseline	428.7	426.987
429.797	2.508	famous_faces_baseline	1	left	1.093	famous_faces_baseline	432.289	430.89
435.297	2.507	recently_learned_faces_baseline	1	left	0.748	recently_learned_faces_baseline	437.778	436.045
438.824	2.507	recently_learned_faces_false_combination	1	right	1.532	recently_learned_faces	441.317	440.356
442.368	2.507	recently_learned_faces_correct_combination	1	left	0.728	recently_learned_faces	444.856	443.096
445.711	2.508	recently_learned_faces_baseline	1	left	1.547	recently_learned_faces_baseline	448.193	447.258
449.389	2.507	recently_learned_faces_false_combination	1	right	1.201	recently_learned_faces	451.882	450.59
452.732	2.508	recently_learned_faces_baseline	1	left	1.169	recently_learned_faces_baseline	455.219	453.901
456.326	2.508	recently_learned_faces_baseline	1	left	1.116	recently_learned_faces_baseline	458.808	457.442
459.653	2.507	famous_faces_baseline	1	left	0.652	famous_faces_baseline	462.145	460.305
463.247	2.507	famous_faces_correct_combination	1	left	0.971	famous_faces	465.734	464.218
466.841	2.507	famous_faces_baseline	1	right	0.957	famous_faces_baseline	469.323	467.798
470.167	2.508	famous_faces_false_combination	1	right	1.532	famous_faces	472.66	471.699
473.611	2.507	famous_faces_false_combination	1	right	0.811	famous_faces	476.098	474.422
477.255	2.508	recently_learned_faces_baseline	1	left	0.932	recently_learned_faces_baseline	479.737	478.187
482.939	2.507	famous_faces_baseline	1	right	1.004	famous_faces_baseline	485.428	483.943
486.282	2.508	recently_learned_faces_correct_combination	1	left	1.704	recently_learned_faces	488.765	487.986
489.859	2.525	recently_learned_faces_baseline	0	right	1.28	recently_learned_faces_baseline	492.354	491.139
493.303	2.507	recently_learned_faces_correct_combination	1	left	1.225	recently_learned_faces	495.792	494.528
496.696	2.508	famous_faces_baseline	1	left	1.028	famous_faces_baseline	499.18	497.724
500.291	2.507	recently_learned_faces_false_combination	1	right	1.564	recently_learned_faces	502.769	501.855
503.818	2.507	famous_faces_false_combination	1	right	1.786	famous_faces	506.308	505.604
507.362	2.507	recently_learned_faces_baseline	1	left	1.381	recently_learned_faces_baseline	509.846	508.743
510.655	2.507	famous_faces_baseline	1	right	0.866	famous_faces_baseline	513.133	511.521
514.182	2.507	recently_learned_faces_false_combination	1	right	1.197	recently_learned_faces	516.671	515.379
517.726	2.507	famous_faces_baseline	1	left	0.952	famous_faces_baseline	520.21	518.678
521.27	2.507	famous_faces_false_combination	1	right	1.484	famous_faces	523.749	522.754
524.797	2.507	recently_learned_faces_false_combination	1	right	1.285	recently_learned_faces	527.287	526.082
530.297	2.507	famous_faces_correct_combination	1	left	1.049	famous_faces	532.775	531.346
533.874	2.507	recently_learned_faces_false_combination	1	right	2.011	recently_learned_faces	536.364	535.885
537.318	2.507	recently_learned_faces_baseline	1	right	1.368	recently_learned_faces_baseline	539.802	538.686
540.912	2.507	recently_learned_faces_correct_combination	1	left	1.494	recently_learned_faces	543.391	542.406
544.188	2.508	famous_faces_correct_combination	1	left	1.139	famous_faces	546.678	545.327
547.732	2.507	famous_faces_correct_combination	1	left	0.995	famous_faces	550.216	548.727
551.176	2.507	recently_learned_faces_false_combination	1	right	1.56	recently_learned_faces	553.654	552.736
554.753	2.507	famous_faces_baseline	1	left	1.188	famous_faces_baseline	557.243	555.941
558.347	2.507	famous_faces_false_combination	1	right	0.897	famous_faces	560.832	559.244
561.79	2.508	famous_faces_false_combination	1	right	1.193	famous_faces	564.27	562.983
565.318	2.507	famous_faces_false_combination	1	right	1.48	famous_faces	567.808	566.798
568.761	2.508	recently_learned_faces_false_combination	1	right	1.214	recently_learned_faces	571.246	569.975
572.105	2.507	recently_learned_faces_false_combination	1	right	1.101	recently_learned_faces	574.583	573.206
577.788	2.508	recently_learned_faces_baseline	1	left	1.152	recently_learned_faces_baseline	580.274	578.94
581.382	2.508	recently_learned_faces_baseline	1	right	0.884	recently_learned_faces_baseline	583.863	582.266
584.709	2.507	recently_learned_faces_false_combination	1	right	1.053	recently_learned_faces	587.2	585.762
588.303	2.507	famous_faces_correct_combination	1	left	0.945	famous_faces	590.789	589.248
591.897	2.507	recently_learned_faces_baseline	1	right	0.825	recently_learned_faces_baseline	594.378	592.722
595.173	2.508	famous_faces_correct_combination	1	left	1.011	famous_faces	597.665	596.184
598.868	2.507	famous_faces_baseline	1	left	1.274	famous_faces_baseline	601.354	600.142
602.311	2.508	recently_learned_faces_false_combination	1	right	1.153	recently_learned_faces	604.792	603.464
605.688	2.507	recently_learned_faces_false_combination	1	right	1.443	recently_learned_faces	608.179	607.131
609.232	2.507	famous_faces_baseline	1	right	0.897	famous_faces_baseline	611.718	610.129
612.625	2.508	famous_faces_baseline	1	right	1.955	famous_faces_baseline	615.106	614.58
616.303	2.507	recently_learned_faces_baseline	1	left	0.832	recently_learned_faces_baseline	618.795	617.135
619.646	2.508	famous_faces_correct_combination	1	left	0.918	famous_faces	622.132	620.564
625.413	2.324	famous_faces_correct_combination	1	left	1.174	famous_faces	627.723	626.587
628.874	2.507	famous_faces_false_combination	1	right	1.119	famous_faces	631.362	629.993
632.418	2.507	famous_faces_correct_combination	1	left	1.423	famous_faces	634.9	633.841
635.794	2.508	famous_faces_false_combination	1	right	1.28	famous_faces	638.288	637.074
639.238	2.507	recently_learned_faces_false_combination	1	right	1.422	recently_learned_faces	641.726	640.66
642.682	2.507	famous_faces_false_combination	1	right	0.988	famous_faces	645.164	643.67
646.309	2.524	famous_faces_false_combination	1	right	1.261	famous_faces	648.803	647.57
649.853	2.507	recently_learned_faces_correct_combination	1	left	0.924	recently_learned_faces	652.341	650.777
653.246	2.508	famous_faces_baseline	1	left	1.296	famous_faces_baseline	655.729	654.542
656.673	2.508	recently_learned_faces_correct_combination	1	left	1.307	recently_learned_faces	659.167	657.98
660.317	2.508	recently_learned_faces_false_combination	1	right	1.247	recently_learned_faces	662.806	661.564
663.711	2.507	famous_faces_baseline	1	right	1.178	famous_faces_baseline	666.194	664.889
667.088	2.524	famous_faces_false_combination	1	right	0.936	famous_faces	669.582	668.024
672.771	2.474	recently_learned_faces_correct_combination	1	left	0.847	recently_learned_faces	675.222	673.618
676.382	2.507	recently_learned_faces_baseline	1	left	1.108	recently_learned_faces_baseline	678.861	677.49
679.909	2.508	recently_learned_faces_correct_combination	1	left	0.675	recently_learned_faces	682.399	680.584
683.253	2.507	famous_faces_false_combination	1	right	0.992	famous_faces	685.736	684.245
686.796	2.508	recently_learned_faces_correct_combination	1	left	1.242	recently_learned_faces	689.275	688.038
690.223	2.508	famous_faces_baseline	1	left	1.063	famous_faces_baseline	692.713	691.286
693.817	2.508	famous_faces_baseline	1	left	0.95	famous_faces_baseline	696.302	694.767
697.261	2.507	famous_faces_correct_combination	1	left	0.862	famous_faces	699.74	698.123
700.838	2.508	recently_learned_faces_false_combination	1	right	1.52	recently_learned_faces	703.329	702.358
704.131	2.508	recently_learned_faces_correct_combination	1	left	0.915	recently_learned_faces	706.616	705.046
707.826	2.507	recently_learned_faces_correct_combination	1	left	1.239	recently_learned_faces	710.305	709.065
711.152	2.508	famous_faces_baseline	1	left	0.949	famous_faces_baseline	713.642	712.101
714.746	2.508	recently_learned_faces_baseline	1	right	0.887	recently_learned_faces_baseline	717.231	715.633
720.33	2.507	famous_faces_false_combination	1	right	0.895	famous_faces	722.821	721.225
723.874	2.507	famous_faces_baseline	1	left	0.914	famous_faces_baseline	726.36	724.788
727.267	2.508	recently_learned_faces_false_combination	1	right	1.004	recently_learned_faces	729.747	728.271
730.895	2.507	famous_faces_correct_combination	1	left	1.043	famous_faces	733.386	731.938
734.188	2.507	recently_learned_faces_correct_combination	1	left	0.873	recently_learned_faces	736.673	735.061
737.882	2.508	recently_learned_faces_correct_combination	1	left	0.751	recently_learned_faces	740.362	738.633
741.259	2.507	famous_faces_correct_combination	1	left	0.827	famous_faces	743.75	742.086
744.652	2.508	recently_learned_faces_correct_combination	1	left	1.004	recently_learned_faces	747.138	745.656
748.196	2.508	recently_learned_faces_false_combination	1	right	1.109	recently_learned_faces	750.676	749.305
751.773	2.508	recently_learned_faces_baseline	1	right	1.055	recently_learned_faces_baseline	754.265	752.828
755.317	2.508	recently_learned_faces_correct_combination	1	left	1.505	recently_learned_faces	757.803	756.822
758.711	2.507	recently_learned_faces_false_combination	1	right	1.071	recently_learned_faces	761.191	759.782
762.087	2.508	recently_learned_faces_correct_combination	1	left	1.116	recently_learned_faces	764.579	763.203
767.788	2.507	recently_learned_faces_baseline	1	right	0.906	recently_learned_faces_baseline	770.269	768.694
771.315	2.524	famous_faces_false_combination	1	right	1.257	famous_faces	773.808	772.572
774.859	2.507	famous_faces_correct_combination	1	left	0.843	famous_faces	777.347	775.702
778.202	2.508	recently_learned_faces_false_combination	1	right	1.689	recently_learned_faces	780.684	779.891
781.88	2.507	famous_faces_baseline	1	left	0.861	famous_faces_baseline	784.373	782.741
785.273	2.508	famous_faces_correct_combination	1	left	0.96	famous_faces	787.761	786.233
788.867	2.508	famous_faces_correct_combination	1	left	1.3	famous_faces	791.35	790.167
792.144	2.507	famous_faces_correct_combination	1	left	0.91	famous_faces	794.637	793.054
