"onset"	"trial_type"	"accuracy"	"button"	"response_time"	"duration"	"trial_type_less_granular"	"time_to_offset_alternative_onset"	"time_to_RT_alternative_onset_or_duration"
10.3	"recently_learned_faces_baseline"	0	NA	NA	0.017	"recently_learned_faces_baseline"	10.301	NA
11.437	"recently_learned_faces_baseline"	1	"right"	2.208	2.508	"recently_learned_faces_baseline"	13.928	13.645
14.73	"famous_faces_baseline"	1	"left"	1.648	2.508	"famous_faces_baseline"	17.215	16.378
18.375	"famous_faces_baseline"	1	"right"	1.643	2.507	"famous_faces_baseline"	20.854	20.018
21.802	"famous_faces_false_combination"	1	"right"	1.833	2.507	"famous_faces"	24.292	23.635
25.245	"famous_faces_correct_combination"	1	"left"	1.186	2.508	"famous_faces"	27.73	26.431
28.689	"recently_learned_faces_false_combination"	1	"right"	2.163	2.507	"recently_learned_faces"	31.168	30.852
32.366	"recently_learned_faces_false_combination"	1	"right"	1.522	2.508	"recently_learned_faces"	34.857	33.888
35.81	"famous_faces_false_combination"	1	"right"	1.881	2.508	"famous_faces"	38.295	37.691
39.254	"famous_faces_baseline"	1	"left"	1.228	2.507	"famous_faces_baseline"	41.733	40.482
42.831	"recently_learned_faces_baseline"	1	"left"	0.916	2.508	"recently_learned_faces_baseline"	45.322	43.747
46.124	"famous_faces_false_combination"	1	"right"	2.375	2.508	"famous_faces"	48.609	48.499
49.668	"famous_faces_baseline"	1	"right"	1.353	2.508	"famous_faces_baseline"	52.147	51.021
55.452	"famous_faces_baseline"	1	"right"	1.288	2.508	"famous_faces_baseline"	57.939	56.74
58.745	"recently_learned_faces_correct_combination"	1	"left"	1.403	2.508	"recently_learned_faces"	61.226	60.148
62.323	"recently_learned_faces_false_combination"	1	"right"	1.319	2.507	"recently_learned_faces"	64.815	63.642
65.767	"famous_faces_correct_combination"	1	"left"	1.54	2.507	"famous_faces"	68.253	67.307
69.361	"famous_faces_false_combination"	1	"right"	1.349	2.507	"famous_faces"	71.842	70.71
72.737	"recently_learned_faces_false_combination"	1	"right"	2.152	2.508	"recently_learned_faces"	75.229	74.889
76.331	"famous_faces_false_combination"	0	NA	NA	2.508	"famous_faces"	78.818	NA
79.675	"recently_learned_faces_false_combination"	1	"right"	1.438	2.507	"recently_learned_faces"	82.155	81.113
83.352	"recently_learned_faces_false_combination"	1	"right"	1.822	2.508	"recently_learned_faces"	85.844	85.174
86.746	"famous_faces_baseline"	1	"right"	1.903	2.507	"famous_faces_baseline"	89.232	88.649
90.29	"famous_faces_baseline"	1	"right"	1.092	2.507	"famous_faces_baseline"	92.771	91.382
93.617	"famous_faces_false_combination"	1	"right"	1.319	2.507	"famous_faces"	96.108	94.936
97.161	"recently_learned_faces_false_combination"	1	"right"	1.477	2.507	"recently_learned_faces"	99.646	98.638
102.794	"recently_learned_faces_correct_combination"	1	"left"	1.65	2.524	"recently_learned_faces"	105.288	104.444
106.238	"famous_faces_correct_combination"	1	"left"	1.163	2.507	"famous_faces"	108.726	107.401
109.932	"recently_learned_faces_correct_combination"	1	"left"	1.154	2.508	"recently_learned_faces"	112.415	111.086
113.309	"recently_learned_faces_false_combination"	1	"right"	1.232	2.524	"recently_learned_faces"	115.803	114.541
116.853	"recently_learned_faces_correct_combination"	1	"left"	1.883	2.507	"recently_learned_faces"	119.342	118.736
120.246	"famous_faces_correct_combination"	1	"left"	1.134	2.508	"famous_faces"	122.729	121.38
123.824	"famous_faces_correct_combination"	1	"left"	0.958	2.524	"famous_faces"	126.318	124.782
127.167	"recently_learned_faces_correct_combination"	1	"left"	1.327	2.507	"recently_learned_faces"	129.655	128.494
130.761	"famous_faces_baseline"	1	"left"	1.356	2.508	"famous_faces_baseline"	133.244	132.117
134.338	"recently_learned_faces_baseline"	1	"right"	1.399	2.525	"recently_learned_faces_baseline"	136.833	135.737
137.632	"famous_faces_baseline"	1	"left"	1.281	2.507	"famous_faces_baseline"	140.12	138.913
141.176	"famous_faces_correct_combination"	1	"left"	0.947	2.507	"famous_faces"	143.658	142.123
144.753	"recently_learned_faces_correct_combination"	1	"left"	1.289	2.524	"recently_learned_faces"	147.247	146.042
150.403	"famous_faces_baseline"	1	"right"	1.195	2.508	"famous_faces_baseline"	152.888	151.598
153.847	"famous_faces_correct_combination"	1	"left"	1.273	2.507	"famous_faces"	156.326	155.12
157.274	"famous_faces_baseline"	1	"right"	0.987	2.507	"famous_faces_baseline"	159.764	158.261
160.918	"recently_learned_faces_correct_combination"	1	"left"	0.986	2.508	"recently_learned_faces"	163.403	161.904
164.211	"recently_learned_faces_baseline"	1	"left"	0.926	2.508	"recently_learned_faces_baseline"	166.69	165.137
167.889	"recently_learned_faces_correct_combination"	1	"left"	0.968	2.507	"recently_learned_faces"	170.379	168.857
171.333	"recently_learned_faces_correct_combination"	1	"left"	1.204	2.507	"recently_learned_faces"	173.817	172.537
174.776	"recently_learned_faces_correct_combination"	1	"left"	0.979	2.508	"recently_learned_faces"	177.255	175.755
178.153	"famous_faces_false_combination"	1	"right"	1.271	2.507	"famous_faces"	180.643	179.424
181.697	"recently_learned_faces_baseline"	1	"left"	1.553	2.507	"recently_learned_faces_baseline"	184.181	183.25
185.291	"famous_faces_false_combination"	1	"right"	1.119	2.508	"famous_faces"	187.77	186.41
188.818	"famous_faces_false_combination"	1	"right"	1.307	2.508	"famous_faces"	191.308	190.125
192.111	"famous_faces_baseline"	1	"right"	1.452	2.508	"famous_faces_baseline"	194.595	193.563
197.795	"recently_learned_faces_false_combination"	1	"right"	1.842	2.508	"recently_learned_faces"	200.287	199.637
201.389	"famous_faces_false_combination"	0	"left"	1.679	2.508	"famous_faces"	203.876	203.068
204.833	"recently_learned_faces_correct_combination"	1	"left"	1.19	2.507	"recently_learned_faces"	207.314	206.023
208.21	"famous_faces_false_combination"	1	"right"	1.069	2.524	"famous_faces"	210.702	209.279
211.904	"famous_faces_baseline"	0	"right"	0.9	2.508	"famous_faces_baseline"	214.391	212.804
215.298	"recently_learned_faces_false_combination"	1	"right"	1.781	2.507	"recently_learned_faces"	217.779	217.079
218.825	"recently_learned_faces_false_combination"	1	"right"	1.822	2.524	"recently_learned_faces"	221.318	220.647
222.218	"famous_faces_correct_combination"	1	"left"	0.875	2.508	"famous_faces"	224.705	223.093
225.862	"recently_learned_faces_baseline"	1	"right"	1.121	2.508	"recently_learned_faces_baseline"	228.344	226.983
229.139	"famous_faces_baseline"	1	"right"	0.933	2.507	"famous_faces_baseline"	231.631	230.072
232.783	"recently_learned_faces_baseline"	1	"left"	1.345	2.508	"recently_learned_faces_baseline"	235.27	234.128
236.227	"recently_learned_faces_baseline"	1	"right"	1.264	2.507	"recently_learned_faces_baseline"	238.708	237.491
239.804	"recently_learned_faces_false_combination"	1	"right"	1.393	2.508	"recently_learned_faces"	242.297	241.197
245.304	"recently_learned_faces_baseline"	1	"right"	0.937	2.508	"recently_learned_faces_baseline"	247.786	246.241
248.932	"famous_faces_correct_combination"	1	"left"	1.398	2.524	"famous_faces"	251.425	250.33
252.225	"famous_faces_correct_combination"	1	"left"	0.903	2.507	"famous_faces"	254.712	253.128
255.869	"famous_faces_baseline"	1	"right"	0.957	2.508	"famous_faces_baseline"	258.351	256.826
259.296	"recently_learned_faces_correct_combination"	1	"left"	1.679	2.507	"recently_learned_faces"	261.789	260.975
262.84	"recently_learned_faces_correct_combination"	1	"left"	1.11	2.507	"recently_learned_faces"	265.328	263.95
266.183	"famous_faces_correct_combination"	1	"left"	0.871	2.508	"famous_faces"	268.665	267.054
269.861	"famous_faces_false_combination"	1	"right"	1.328	2.524	"famous_faces"	272.354	271.189
273.204	"famous_faces_correct_combination"	1	"left"	0.896	2.508	"famous_faces"	275.691	274.1
276.748	"famous_faces_baseline"	1	"left"	1.31	2.508	"famous_faces_baseline"	279.23	278.058
280.125	"recently_learned_faces_correct_combination"	1	"left"	1.004	2.507	"recently_learned_faces"	282.618	281.129
283.719	"famous_faces_false_combination"	1	"right"	1.181	2.508	"famous_faces"	286.207	284.9
287.163	"recently_learned_faces_correct_combination"	1	"left"	1.65	2.507	"recently_learned_faces"	289.645	288.813
292.897	"recently_learned_faces_correct_combination"	1	"left"	1.243	2.507	"recently_learned_faces"	295.386	294.14
296.34	"famous_faces_false_combination"	1	"right"	1.782	2.508	"famous_faces"	298.824	298.122
299.784	"famous_faces_false_combination"	1	"right"	1.251	2.507	"famous_faces"	302.262	301.035
303.411	"recently_learned_faces_baseline"	1	"right"	1.165	2.508	"recently_learned_faces_baseline"	305.901	304.576
306.705	"famous_faces_correct_combination"	1	"left"	1.037	2.507	"famous_faces"	309.188	307.742
310.232	"recently_learned_faces_baseline"	1	"left"	1.5	2.524	"recently_learned_faces_baseline"	312.726	311.732
313.776	"famous_faces_correct_combination"	1	"left"	1.142	2.507	"famous_faces"	316.265	314.918
317.32	"recently_learned_faces_correct_combination"	1	"left"	0.928	2.507	"recently_learned_faces"	319.804	318.248
320.663	"recently_learned_faces_false_combination"	1	"right"	1.587	2.508	"recently_learned_faces"	323.141	322.25
324.341	"recently_learned_faces_false_combination"	1	"right"	2	2.507	"recently_learned_faces"	326.83	326.341
327.634	"recently_learned_faces_correct_combination"	1	"left"	1.231	2.507	"recently_learned_faces"	330.117	328.865
331.161	"recently_learned_faces_baseline"	1	"right"	1.913	2.524	"recently_learned_faces_baseline"	333.655	333.074
334.755	"famous_faces_correct_combination"	1	"left"	1.358	2.508	"famous_faces"	337.244	336.113
340.456	"recently_learned_faces_baseline"	1	"left"	1.857	2.507	"recently_learned_faces_baseline"	342.936	342.313
343.732	"recently_learned_faces_baseline"	1	"right"	1.141	2.508	"recently_learned_faces_baseline"	346.223	344.873
347.326	"famous_faces_false_combination"	1	"right"	1.989	2.508	"famous_faces"	349.812	349.315
350.77	"recently_learned_faces_correct_combination"	1	"left"	1.149	2.507	"recently_learned_faces"	353.25	351.919
354.347	"famous_faces_false_combination"	1	"right"	1.117	2.524	"famous_faces"	356.839	355.464
357.691	"recently_learned_faces_baseline"	1	"right"	1.594	2.507	"recently_learned_faces_baseline"	360.176	359.285
361.234	"recently_learned_faces_baseline"	1	"left"	1.289	2.508	"recently_learned_faces_baseline"	363.714	362.523
364.862	"recently_learned_faces_false_combination"	1	"right"	1.854	2.507	"recently_learned_faces"	367.353	366.716
368.306	"famous_faces_false_combination"	1	"right"	1.541	2.507	"famous_faces"	370.791	369.847
371.749	"famous_faces_correct_combination"	1	"left"	1.466	2.508	"famous_faces"	374.229	373.215
375.126	"famous_faces_false_combination"	1	"right"	1.156	2.508	"famous_faces"	377.617	376.282
378.77	"recently_learned_faces_baseline"	1	"right"	1.858	2.508	"recently_learned_faces_baseline"	381.256	380.628
382.164	"recently_learned_faces_false_combination"	1	"right"	1.276	2.507	"recently_learned_faces"	384.643	383.44
387.747	"recently_learned_faces_baseline"	1	"left"	1.569	2.508	"recently_learned_faces_baseline"	390.234	389.316
391.391	"famous_faces_false_combination"	1	"right"	1.727	2.508	"famous_faces"	393.873	393.118
394.818	"famous_faces_correct_combination"	1	"left"	1.081	2.525	"famous_faces"	397.311	395.899
398.262	"recently_learned_faces_baseline"	1	"right"	1.04	2.508	"recently_learned_faces_baseline"	400.749	399.302
401.906	"recently_learned_faces_correct_combination"	1	"left"	1.213	2.508	"recently_learned_faces"	404.388	403.119
405.233	"famous_faces_correct_combination"	1	"left"	1.558	2.507	"famous_faces"	407.725	406.791
408.777	"recently_learned_faces_false_combination"	1	"right"	1.26	2.507	"recently_learned_faces"	411.264	410.037
412.321	"famous_faces_correct_combination"	1	"left"	0.957	2.507	"famous_faces"	414.803	413.278
415.647	"famous_faces_false_combination"	1	"right"	1.049	2.508	"famous_faces"	418.14	416.696
419.342	"famous_faces_baseline"	1	"right"	1.553	2.507	"famous_faces_baseline"	421.829	420.895
422.685	"famous_faces_correct_combination"	1	"left"	1.013	2.508	"famous_faces"	425.166	423.698
426.313	"famous_faces_baseline"	1	"right"	0.883	2.507	"famous_faces_baseline"	428.805	427.196
429.706	"famous_faces_baseline"	1	"left"	1.181	2.508	"famous_faces_baseline"	432.193	430.887
435.239	"recently_learned_faces_baseline"	1	"left"	1.177	2.525	"recently_learned_faces_baseline"	437.733	436.416
438.884	"recently_learned_faces_false_combination"	1	"right"	1.738	2.507	"recently_learned_faces"	441.372	440.622
442.428	"recently_learned_faces_correct_combination"	1	"left"	1.084	2.507	"recently_learned_faces"	444.91	443.512
445.804	"recently_learned_faces_baseline"	1	"left"	1.691	2.525	"recently_learned_faces_baseline"	448.298	447.495
449.248	"recently_learned_faces_false_combination"	1	"right"	1.935	2.507	"recently_learned_faces"	451.736	451.183
452.842	"recently_learned_faces_baseline"	1	"left"	1.453	2.508	"recently_learned_faces_baseline"	455.325	454.295
456.219	"recently_learned_faces_baseline"	1	"left"	1.517	2.524	"recently_learned_faces_baseline"	458.712	457.736
459.763	"famous_faces_baseline"	1	"left"	0.913	2.507	"famous_faces_baseline"	462.251	460.676
463.156	"famous_faces_correct_combination"	1	"left"	1.315	2.508	"famous_faces"	465.639	464.471
466.834	"famous_faces_baseline"	1	"right"	0.91	2.524	"famous_faces_baseline"	469.328	467.744
470.227	"famous_faces_false_combination"	1	"right"	1.499	2.508	"famous_faces"	472.716	471.726
473.621	"famous_faces_false_combination"	1	"right"	1.335	2.507	"famous_faces"	476.104	474.956
477.148	"recently_learned_faces_baseline"	1	"left"	1.395	2.524	"recently_learned_faces_baseline"	479.642	478.543
482.748	"famous_faces_baseline"	1	"right"	1.523	2.508	"famous_faces_baseline"	485.233	484.271
486.342	"recently_learned_faces_correct_combination"	1	"left"	1.671	2.508	"recently_learned_faces"	488.822	488.013
489.769	"recently_learned_faces_baseline"	1	"left"	1.366	2.508	"recently_learned_faces_baseline"	492.26	491.135
493.363	"recently_learned_faces_correct_combination"	1	"left"	1.115	2.508	"recently_learned_faces"	495.849	494.478
496.907	"famous_faces_baseline"	1	"left"	1.013	2.508	"famous_faces_baseline"	499.387	497.92
500.284	"recently_learned_faces_false_combination"	1	"right"	1.567	2.508	"recently_learned_faces"	502.775	501.851
503.828	"famous_faces_false_combination"	1	"right"	2.051	2.508	"famous_faces"	506.314	505.879
507.171	"recently_learned_faces_baseline"	1	"left"	1.562	2.508	"recently_learned_faces_baseline"	509.651	508.733
510.849	"famous_faces_baseline"	1	"right"	0.871	2.508	"famous_faces_baseline"	513.34	511.72
514.192	"recently_learned_faces_false_combination"	1	"right"	1.71	2.508	"recently_learned_faces"	516.677	515.902
517.837	"famous_faces_baseline"	1	"left"	1.198	2.507	"famous_faces_baseline"	520.316	519.035
521.163	"famous_faces_false_combination"	1	"right"	1.558	2.508	"famous_faces"	523.653	522.721
524.757	"recently_learned_faces_false_combination"	1	"right"	1.423	2.508	"recently_learned_faces"	527.242	526.18
530.257	"famous_faces_correct_combination"	1	"left"	0.973	2.491	"famous_faces"	532.732	531.23
533.835	"recently_learned_faces_false_combination"	1	"right"	1.383	2.507	"recently_learned_faces"	536.321	535.218
537.278	"recently_learned_faces_baseline"	1	"right"	1.746	2.508	"recently_learned_faces_baseline"	539.759	539.024
540.856	"recently_learned_faces_correct_combination"	1	"left"	1.135	2.507	"recently_learned_faces"	543.348	541.991
544.4	"famous_faces_correct_combination"	1	"left"	1.011	2.507	"famous_faces"	546.886	545.411
547.693	"famous_faces_correct_combination"	1	"left"	1.067	2.507	"famous_faces"	550.173	548.76
551.37	"recently_learned_faces_false_combination"	1	"right"	1.185	2.508	"recently_learned_faces"	553.862	552.555
554.764	"famous_faces_baseline"	1	"left"	1.578	2.507	"famous_faces_baseline"	557.25	556.342
558.208	"famous_faces_false_combination"	1	"right"	1.227	2.507	"famous_faces"	560.688	559.435
561.785	"famous_faces_false_combination"	1	"right"	1.072	2.507	"famous_faces"	564.277	562.857
565.178	"famous_faces_false_combination"	1	"right"	1.255	2.508	"famous_faces"	567.664	566.433
568.773	"recently_learned_faces_false_combination"	1	"right"	1.314	2.507	"recently_learned_faces"	571.253	570.087
572.199	"recently_learned_faces_false_combination"	1	"right"	1.921	2.508	"recently_learned_faces"	574.691	574.12
577.95	"recently_learned_faces_baseline"	1	"left"	1.659	2.507	"recently_learned_faces_baseline"	580.432	579.609
581.226	"recently_learned_faces_baseline"	1	"right"	2.053	2.508	"recently_learned_faces_baseline"	583.719	583.279
584.871	"recently_learned_faces_false_combination"	1	"right"	1.33	2.507	"recently_learned_faces"	587.358	586.201
588.264	"famous_faces_correct_combination"	1	"left"	1.116	2.508	"famous_faces"	590.745	589.38
591.791	"recently_learned_faces_baseline"	1	"right"	1.052	2.508	"recently_learned_faces_baseline"	594.284	592.843
595.335	"famous_faces_correct_combination"	1	"left"	1.12	2.508	"famous_faces"	597.823	596.455
598.679	"famous_faces_baseline"	1	"left"	2.137	2.507	"famous_faces_baseline"	601.16	600.816
602.206	"recently_learned_faces_false_combination"	1	"right"	1.997	2.507	"recently_learned_faces"	604.698	604.203
605.75	"recently_learned_faces_false_combination"	1	"right"	1.484	2.507	"recently_learned_faces"	608.237	607.234
609.344	"famous_faces_baseline"	1	"right"	1.254	2.507	"famous_faces_baseline"	611.826	610.598
612.671	"famous_faces_baseline"	1	"right"	0.893	2.507	"famous_faces_baseline"	615.163	613.564
616.315	"recently_learned_faces_baseline"	1	"left"	1.129	2.507	"recently_learned_faces_baseline"	618.802	617.444
619.708	"famous_faces_correct_combination"	1	"left"	0.999	2.508	"famous_faces"	622.19	620.707
625.509	"famous_faces_correct_combination"	1	"left"	1.21	2.441	"famous_faces"	627.932	626.719
628.836	"famous_faces_false_combination"	1	"right"	1.397	2.507	"famous_faces"	631.32	630.233
632.279	"famous_faces_correct_combination"	1	"left"	1.451	2.508	"famous_faces"	634.758	633.73
635.706	"famous_faces_false_combination"	1	"right"	1.085	2.508	"famous_faces"	638.196	636.791
639.35	"recently_learned_faces_false_combination"	1	"right"	1.36	2.508	"recently_learned_faces"	641.835	640.71
642.794	"famous_faces_false_combination"	1	"right"	1.105	2.508	"famous_faces"	645.273	643.899
646.221	"famous_faces_false_combination"	1	"right"	1.579	2.508	"famous_faces"	648.711	647.8
649.865	"recently_learned_faces_correct_combination"	1	"left"	0.975	2.508	"recently_learned_faces"	652.35	650.84
653.309	"famous_faces_baseline"	1	"left"	1.671	2.507	"famous_faces_baseline"	655.788	654.98
656.636	"recently_learned_faces_correct_combination"	1	"left"	1.137	2.507	"recently_learned_faces"	659.125	657.773
660.33	"recently_learned_faces_false_combination"	1	"right"	1.591	2.507	"recently_learned_faces"	662.814	661.921
663.774	"famous_faces_baseline"	1	"right"	1.138	2.507	"famous_faces_baseline"	666.252	664.912
667.15	"famous_faces_false_combination"	1	"right"	1.308	2.508	"famous_faces"	669.639	668.458
672.851	"recently_learned_faces_correct_combination"	1	"left"	1.113	2.507	"recently_learned_faces"	675.331	673.964
676.228	"recently_learned_faces_baseline"	1	"left"	1.135	2.507	"recently_learned_faces_baseline"	678.719	677.363
679.922	"recently_learned_faces_correct_combination"	1	"left"	0.948	2.507	"recently_learned_faces"	682.408	680.87
683.366	"famous_faces_false_combination"	1	"right"	1.411	2.507	"famous_faces"	685.846	684.777
686.742	"recently_learned_faces_correct_combination"	1	"left"	1.266	2.508	"recently_learned_faces"	689.233	688.008
690.186	"famous_faces_baseline"	1	"left"	1.183	2.508	"famous_faces_baseline"	692.671	691.369
693.83	"famous_faces_baseline"	1	"left"	0.81	2.508	"famous_faces_baseline"	696.31	694.64
697.207	"famous_faces_correct_combination"	1	"left"	1.414	2.508	"famous_faces"	699.697	698.621
700.751	"recently_learned_faces_false_combination"	1	"right"	1.681	2.507	"recently_learned_faces"	703.236	702.432
704.345	"recently_learned_faces_correct_combination"	1	"left"	0.967	2.508	"recently_learned_faces"	706.825	705.312
707.622	"recently_learned_faces_correct_combination"	1	"left"	0.966	2.507	"recently_learned_faces"	710.112	708.588
711.166	"famous_faces_baseline"	1	"left"	1.042	2.507	"famous_faces_baseline"	713.65	712.208
714.709	"recently_learned_faces_baseline"	1	"right"	1.096	2.508	"recently_learned_faces_baseline"	717.189	715.805
720.293	"famous_faces_false_combination"	1	"right"	1.333	2.507	"famous_faces"	722.78	721.626
723.837	"famous_faces_baseline"	1	"left"	1.122	2.507	"famous_faces_baseline"	726.319	724.959
727.414	"recently_learned_faces_false_combination"	1	"right"	1.466	2.524	"recently_learned_faces"	729.908	728.88
730.707	"famous_faces_correct_combination"	1	"left"	1.008	2.508	"famous_faces"	733.195	731.715
734.352	"recently_learned_faces_correct_combination"	1	"left"	0.982	2.507	"recently_learned_faces"	736.834	735.334
737.779	"recently_learned_faces_correct_combination"	1	"left"	1.123	2.524	"recently_learned_faces"	740.272	738.902
741.373	"famous_faces_correct_combination"	1	"left"	0.781	2.507	"famous_faces"	743.861	742.154
744.716	"recently_learned_faces_correct_combination"	1	"left"	1.023	2.507	"recently_learned_faces"	747.198	745.739
748.293	"recently_learned_faces_false_combination"	1	"right"	1.678	2.525	"recently_learned_faces"	750.787	749.971
751.637	"recently_learned_faces_baseline"	1	"right"	1.712	2.507	"recently_learned_faces_baseline"	754.124	753.349
755.231	"recently_learned_faces_correct_combination"	1	"left"	0.958	2.507	"recently_learned_faces"	757.713	756.189
758.658	"recently_learned_faces_false_combination"	1	"right"	1.513	2.507	"recently_learned_faces"	761.151	760.171
762.101	"recently_learned_faces_correct_combination"	1	"left"	0.88	2.508	"recently_learned_faces"	764.589	762.981
767.735	"recently_learned_faces_baseline"	1	"right"	1.421	2.524	"recently_learned_faces_baseline"	770.229	769.156
771.379	"famous_faces_false_combination"	1	"right"	1.29	2.508	"famous_faces"	773.868	772.669
774.923	"famous_faces_correct_combination"	1	"left"	1.08	2.508	"famous_faces"	777.406	776.003
778.25	"recently_learned_faces_false_combination"	1	"right"	1.643	2.507	"recently_learned_faces"	780.743	779.893
781.794	"famous_faces_baseline"	1	"left"	1.353	2.507	"famous_faces_baseline"	784.282	783.147
785.187	"famous_faces_correct_combination"	1	"left"	1.218	2.508	"famous_faces"	787.67	786.405
788.815	"famous_faces_correct_combination"	1	"left"	0.993	2.524	"famous_faces"	791.309	789.808
792.208	"famous_faces_correct_combination"	1	"left"	0.869	2.508	"famous_faces"	794.696	793.077
