"onset"	"trial_type"	"accuracy"	"button"	"response_time"	"duration"	"trial_type_less_granular"	"time_to_offset_alternative_onset"	"time_to_RT_alternative_onset_or_duration"
7.94600000000003	"recently_learned_faces_baseline"	1	"right"	2.036	2.524	"recently_learned_faces_baseline"	10.44	9.98200000000003
11.29	"recently_learned_faces_baseline"	1	"right"	1.568	2.507	"recently_learned_faces_baseline"	13.777	12.858
14.833	"famous_faces_baseline"	0	"right"	0.72	2.508	"famous_faces_baseline"	17.316	15.553
18.21	"famous_faces_baseline"	1	"right"	2.214	2.524	"famous_faces_baseline"	20.704	20.424
21.854	"famous_faces_false_combination"	1	"right"	1.806	2.508	"famous_faces"	24.343	23.66
25.248	"famous_faces_correct_combination"	0	"right"	1.376	2.507	"famous_faces"	27.73	26.624
28.675	"recently_learned_faces_false_combination"	1	"right"	1.144	2.524	"recently_learned_faces"	31.168	29.819
32.319	"recently_learned_faces_false_combination"	1	"right"	1.606	2.507	"recently_learned_faces"	34.807	33.925
35.762	"famous_faces_false_combination"	1	"right"	1.129	2.508	"famous_faces"	38.245	36.891
39.34	"famous_faces_baseline"	1	"left"	1.465	2.524	"famous_faces_baseline"	41.834	40.805
42.683	"recently_learned_faces_baseline"	1	"left"	1.366	2.507	"recently_learned_faces_baseline"	45.171	44.049
46.327	"famous_faces_false_combination"	1	"right"	1.71	2.508	"famous_faces"	48.81	48.037
49.604	"famous_faces_baseline"	0	"left"	1.968	2.524	"famous_faces_baseline"	52.097	51.572
55.454	"famous_faces_baseline"	1	"right"	2.396	2.508	"famous_faces_baseline"	57.939	57.85
58.798	"recently_learned_faces_correct_combination"	0	"right"	1.373	2.507	"recently_learned_faces"	61.276	60.171
62.325	"recently_learned_faces_false_combination"	0	"left"	2.026	2.507	"recently_learned_faces"	64.815	64.351
65.718	"famous_faces_correct_combination"	1	"left"	1.661	2.508	"famous_faces"	68.203	67.379
69.362	"famous_faces_false_combination"	1	"right"	1.194	2.508	"famous_faces"	71.842	70.556
72.739	"recently_learned_faces_false_combination"	0	"left"	1.708	2.508	"recently_learned_faces"	75.229	74.447
76.283	"famous_faces_false_combination"	1	"right"	1.948	2.508	"famous_faces"	78.768	78.231
79.676	"recently_learned_faces_false_combination"	1	"right"	1.684	2.508	"recently_learned_faces"	82.156	81.36
83.304	"recently_learned_faces_false_combination"	0	"left"	1.39	2.507	"recently_learned_faces"	85.795	84.694
86.848	"famous_faces_baseline"	1	"right"	1.492	2.507	"famous_faces_baseline"	89.333	88.34
90.141	"famous_faces_baseline"	1	"right"	1.457	2.507	"famous_faces_baseline"	92.62	91.598
93.819	"famous_faces_false_combination"	1	"right"	1.678	2.507	"famous_faces"	96.309	95.497
97.162	"recently_learned_faces_false_combination"	0	"left"	1.543	2.507	"recently_learned_faces"	99.646	98.705
102.896	"recently_learned_faces_correct_combination"	1	"left"	2.014	2.524	"recently_learned_faces"	105.388	104.91
106.289	"famous_faces_correct_combination"	0	"right"	1.918	2.508	"famous_faces"	108.775	108.207
109.733	"recently_learned_faces_correct_combination"	1	"left"	2.416	2.507	"recently_learned_faces"	112.213	112.149
113.41	"recently_learned_faces_false_combination"	1	"right"	2.131	2.508	"recently_learned_faces"	115.902	115.541
116.804	"recently_learned_faces_correct_combination"	1	"left"	1.204	2.507	"recently_learned_faces"	119.29	118.008
120.398	"famous_faces_correct_combination"	1	"left"	2.466	2.507	"famous_faces"	122.879	122.864
123.724	"famous_faces_correct_combination"	0	"right"	1.258	2.508	"famous_faces"	126.216	124.982
127.168	"recently_learned_faces_correct_combination"	1	"left"	1.012	2.507	"recently_learned_faces"	129.654	128.18
130.762	"famous_faces_baseline"	0	"right"	0.86	2.507	"famous_faces_baseline"	133.243	131.622
134.289	"recently_learned_faces_baseline"	1	"right"	1.833	2.524	"recently_learned_faces_baseline"	136.782	136.122
137.683	"famous_faces_baseline"	0	"right"	1.395	2.507	"famous_faces_baseline"	140.169	139.078
141.126	"famous_faces_correct_combination"	1	"left"	1.192	2.508	"famous_faces"	143.607	142.318
144.804	"recently_learned_faces_correct_combination"	0	"right"	1.416	2.524	"recently_learned_faces"	147.296	146.22
150.304	"famous_faces_baseline"	1	"right"	1.312	2.507	"famous_faces_baseline"	152.785	151.616
153.931	"famous_faces_correct_combination"	0	"right"	1.662	2.507	"famous_faces"	156.424	155.593
157.224	"famous_faces_baseline"	0	"left"	1.084	2.508	"famous_faces_baseline"	159.711	158.308
160.868	"recently_learned_faces_correct_combination"	1	"left"	1.031	2.508	"recently_learned_faces"	163.35	161.899
164.295	"recently_learned_faces_baseline"	1	"left"	1.222	2.524	"recently_learned_faces_baseline"	166.788	165.517
167.739	"recently_learned_faces_correct_combination"	1	"left"	1.002	2.507	"recently_learned_faces"	170.226	168.741
171.182	"recently_learned_faces_correct_combination"	0	"right"	1.159	2.508	"recently_learned_faces"	173.664	172.341
174.86	"recently_learned_faces_correct_combination"	0	"right"	1.369	2.524	"recently_learned_faces"	177.353	176.229
178.304	"famous_faces_false_combination"	1	"right"	1.571	2.507	"famous_faces"	180.791	179.875
181.747	"recently_learned_faces_baseline"	1	"left"	1.091	2.508	"recently_learned_faces_baseline"	184.229	182.838
185.324	"famous_faces_false_combination"	1	"right"	1.659	2.525	"famous_faces"	187.818	186.983
188.618	"famous_faces_false_combination"	1	"right"	1.301	2.507	"famous_faces"	191.105	189.919
192.161	"famous_faces_baseline"	1	"right"	1.197	2.508	"famous_faces_baseline"	194.643	193.358
197.795	"recently_learned_faces_false_combination"	0	NA	NA	2.507	"recently_learned_faces"	200.284	NA
201.238	"famous_faces_false_combination"	1	"right"	1.22	2.508	"famous_faces"	203.722	202.458
204.832	"recently_learned_faces_correct_combination"	0	"right"	1.335	2.508	"recently_learned_faces"	207.311	206.167
208.36	"famous_faces_false_combination"	1	"right"	1.315	2.507	"famous_faces"	210.85	209.675
211.904	"famous_faces_baseline"	1	"left"	1.34	2.507	"famous_faces_baseline"	214.388	213.244
215.297	"recently_learned_faces_false_combination"	0	"left"	1.018	2.507	"recently_learned_faces"	217.776	216.315
218.724	"recently_learned_faces_false_combination"	1	"right"	1.754	2.507	"recently_learned_faces"	221.214	220.478
222.318	"famous_faces_correct_combination"	1	"left"	2.07	2.507	"famous_faces"	224.803	224.388
225.661	"recently_learned_faces_baseline"	0	"left"	1.609	2.508	"recently_learned_faces_baseline"	228.14	227.27
229.339	"famous_faces_baseline"	1	"right"	1.073	2.507	"famous_faces_baseline"	231.829	230.412
232.732	"recently_learned_faces_baseline"	1	"left"	1.523	2.508	"recently_learned_faces_baseline"	235.217	234.255
236.126	"recently_learned_faces_baseline"	1	"right"	1.848	2.507	"recently_learned_faces_baseline"	238.605	237.974
239.803	"recently_learned_faces_false_combination"	0	"left"	1.753	2.508	"recently_learned_faces"	242.294	241.556
245.403	"recently_learned_faces_baseline"	1	"right"	1.136	2.508	"recently_learned_faces_baseline"	247.883	246.539
248.78	"famous_faces_correct_combination"	0	"right"	1.02	2.507	"famous_faces"	251.27	249.8
252.224	"famous_faces_correct_combination"	0	"right"	1.151	2.507	"famous_faces"	254.708	253.375
255.818	"famous_faces_baseline"	1	"right"	1.057	2.507	"famous_faces_baseline"	258.297	256.875
259.395	"recently_learned_faces_correct_combination"	1	"left"	1.232	2.507	"recently_learned_faces"	261.886	260.627
262.738	"recently_learned_faces_correct_combination"	1	"left"	1.021	2.508	"recently_learned_faces"	265.223	263.759
266.382	"famous_faces_correct_combination"	1	"left"	1.782	2.508	"famous_faces"	268.862	268.164
269.759	"famous_faces_false_combination"	1	"right"	1.275	2.508	"famous_faces"	272.25	271.034
273.153	"famous_faces_correct_combination"	0	"right"	1.504	2.507	"famous_faces"	275.638	274.657
276.797	"famous_faces_baseline"	1	"left"	1.393	2.507	"famous_faces_baseline"	279.277	278.19
280.324	"recently_learned_faces_correct_combination"	1	"left"	1.265	2.507	"recently_learned_faces"	282.815	281.589
283.617	"famous_faces_false_combination"	1	"right"	1.443	2.508	"famous_faces"	286.102	285.06
287.211	"recently_learned_faces_correct_combination"	0	"right"	1.272	2.508	"recently_learned_faces"	289.691	288.483
292.744	"recently_learned_faces_correct_combination"	0	NA	NA	2.508	"recently_learned_faces"	295.231	NA
296.388	"famous_faces_false_combination"	1	"right"	1.607	2.508	"famous_faces"	298.87	297.995
299.765	"famous_faces_false_combination"	1	"right"	1.059	2.508	"famous_faces"	302.257	300.824
303.309	"recently_learned_faces_baseline"	0	"left"	1.371	2.508	"recently_learned_faces_baseline"	305.796	304.68
306.903	"famous_faces_correct_combination"	0	"right"	1.573	2.508	"famous_faces"	309.385	308.476
310.18	"recently_learned_faces_baseline"	1	"left"	1.232	2.507	"recently_learned_faces_baseline"	312.672	311.412
313.824	"famous_faces_correct_combination"	1	"left"	1.988	2.507	"famous_faces"	316.311	315.812
317.267	"recently_learned_faces_correct_combination"	1	"left"	1.047	2.508	"recently_learned_faces"	319.749	318.314
320.694	"recently_learned_faces_false_combination"	1	"right"	1.304	2.508	"recently_learned_faces"	323.187	321.998
324.338	"recently_learned_faces_false_combination"	1	"right"	2.113	2.508	"recently_learned_faces"	326.826	326.451
327.732	"recently_learned_faces_correct_combination"	1	"left"	1.391	2.507	"recently_learned_faces"	330.214	329.123
331.109	"recently_learned_faces_baseline"	1	"right"	0.967	2.524	"recently_learned_faces_baseline"	333.602	332.076
334.753	"famous_faces_correct_combination"	1	"left"	1.558	2.507	"famous_faces"	337.241	336.311
340.286	"recently_learned_faces_baseline"	1	"left"	1.518	2.507	"recently_learned_faces_baseline"	342.779	341.804
343.729	"recently_learned_faces_baseline"	1	"right"	1.073	2.508	"recently_learned_faces_baseline"	346.217	344.802
347.424	"famous_faces_false_combination"	1	"right"	1.65	2.507	"famous_faces"	349.906	349.074
350.851	"recently_learned_faces_correct_combination"	0	"right"	1.811	2.507	"recently_learned_faces"	353.344	352.662
354.294	"famous_faces_false_combination"	1	"right"	1.22	2.508	"famous_faces"	356.782	355.514
357.888	"recently_learned_faces_baseline"	1	"right"	1.275	2.508	"recently_learned_faces_baseline"	360.371	359.163
361.315	"recently_learned_faces_baseline"	0	"right"	0.79	2.524	"recently_learned_faces_baseline"	363.809	362.105
364.658	"recently_learned_faces_false_combination"	0	"left"	1.942	2.508	"recently_learned_faces"	367.146	366.6
368.202	"famous_faces_false_combination"	1	"right"	1.496	2.508	"famous_faces"	370.684	369.698
371.729	"famous_faces_correct_combination"	1	"left"	0.913	2.525	"famous_faces"	374.223	372.642
375.324	"famous_faces_false_combination"	1	"right"	1.437	2.507	"famous_faces"	377.812	376.761
378.717	"recently_learned_faces_baseline"	1	"right"	1.582	2.507	"recently_learned_faces_baseline"	381.2	380.299
382.094	"recently_learned_faces_false_combination"	1	"right"	1.852	2.524	"recently_learned_faces"	384.588	383.946
387.794	"recently_learned_faces_baseline"	1	"left"	1.261	2.507	"recently_learned_faces_baseline"	390.278	389.055
391.388	"famous_faces_false_combination"	1	"right"	1.429	2.507	"famous_faces"	393.867	392.817
394.715	"famous_faces_correct_combination"	1	"left"	2.449	2.507	"famous_faces"	397.204	397.164
398.409	"recently_learned_faces_baseline"	0	"left"	1.372	2.507	"recently_learned_faces_baseline"	400.893	399.781
401.802	"recently_learned_faces_correct_combination"	0	"right"	1.387	2.508	"recently_learned_faces"	404.281	403.189
405.38	"famous_faces_correct_combination"	0	"right"	1.214	2.507	"famous_faces"	407.87	406.594
408.673	"recently_learned_faces_false_combination"	0	NA	NA	2.507	"recently_learned_faces"	411.157	NA
412.267	"famous_faces_correct_combination"	1	"left"	1.61	2.507	"famous_faces"	414.746	413.877
415.794	"famous_faces_false_combination"	1	"right"	1.457	2.507	"famous_faces"	418.285	417.251
419.187	"famous_faces_baseline"	0	"left"	1.6	2.508	"famous_faces_baseline"	421.672	420.787
422.832	"famous_faces_correct_combination"	1	"left"	1.652	2.507	"famous_faces"	425.311	424.484
426.158	"famous_faces_baseline"	0	"left"	1.561	2.508	"famous_faces_baseline"	428.648	427.719
429.602	"famous_faces_baseline"	1	"left"	2.204	2.507	"famous_faces_baseline"	432.086	431.806
435.235	"recently_learned_faces_baseline"	1	"left"	1.389	2.508	"recently_learned_faces_baseline"	437.726	436.624
438.93	"recently_learned_faces_false_combination"	1	"right"	1.389	2.507	"recently_learned_faces"	441.415	440.319
442.273	"recently_learned_faces_correct_combination"	1	"left"	2.409	2.507	"recently_learned_faces"	444.752	444.682
445.8	"recently_learned_faces_baseline"	0	"right"	1.014	2.507	"recently_learned_faces_baseline"	448.291	446.814
449.344	"recently_learned_faces_false_combination"	0	"left"	1.363	2.507	"recently_learned_faces"	451.83	450.707
452.687	"recently_learned_faces_baseline"	1	"left"	0.983	2.508	"recently_learned_faces_baseline"	455.167	453.67
456.214	"recently_learned_faces_baseline"	1	"left"	1.534	2.508	"recently_learned_faces_baseline"	458.705	457.748
459.758	"famous_faces_baseline"	1	"left"	1.282	2.508	"famous_faces_baseline"	462.244	461.04
463.352	"famous_faces_correct_combination"	1	"left"	1.515	2.508	"famous_faces"	465.833	464.867
466.779	"famous_faces_baseline"	1	"right"	1.156	2.508	"famous_faces_baseline"	469.271	467.935
470.173	"famous_faces_false_combination"	1	"right"	1.232	2.507	"famous_faces"	472.658	471.405
473.616	"famous_faces_false_combination"	1	"right"	1.048	2.508	"famous_faces"	476.096	474.664
477.194	"recently_learned_faces_baseline"	0	"right"	0.839	2.507	"recently_learned_faces_baseline"	479.685	478.033
482.793	"famous_faces_baseline"	0	"left"	1.65	2.508	"famous_faces_baseline"	485.275	484.443
486.22	"recently_learned_faces_correct_combination"	0	"right"	1.647	2.508	"recently_learned_faces"	488.713	487.867
489.915	"recently_learned_faces_baseline"	1	"left"	1.687	2.507	"recently_learned_faces_baseline"	492.402	491.602
493.358	"recently_learned_faces_correct_combination"	0	"right"	2.224	2.508	"recently_learned_faces"	495.84	495.582
496.785	"famous_faces_baseline"	1	"left"	1.238	2.508	"famous_faces_baseline"	499.278	498.023
500.229	"recently_learned_faces_false_combination"	1	"right"	2.001	2.507	"recently_learned_faces"	502.716	502.23
503.773	"famous_faces_false_combination"	1	"right"	1.299	2.507	"famous_faces"	506.255	505.072
507.35	"recently_learned_faces_baseline"	0	NA	NA	2.507	"recently_learned_faces_baseline"	509.844	NA
510.643	"famous_faces_baseline"	1	"right"	1.248	2.508	"famous_faces_baseline"	513.131	511.891
514.287	"recently_learned_faces_false_combination"	1	"right"	1.686	2.508	"recently_learned_faces"	516.77	515.973
517.714	"famous_faces_baseline"	1	"left"	1.59	2.508	"famous_faces_baseline"	520.208	519.304
521.108	"famous_faces_false_combination"	1	"right"	1.309	2.507	"famous_faces"	523.596	522.417
524.752	"recently_learned_faces_false_combination"	1	"right"	1.801	2.507	"recently_learned_faces"	527.235	526.553
530.285	"famous_faces_correct_combination"	0	"right"	1.549	2.507	"famous_faces"	532.774	531.834
533.929	"recently_learned_faces_false_combination"	1	"right"	1.849	2.508	"recently_learned_faces"	536.413	535.778
537.206	"recently_learned_faces_baseline"	1	"right"	1.128	2.507	"recently_learned_faces_baseline"	539.7	538.334
540.8	"recently_learned_faces_correct_combination"	0	"right"	1.389	2.507	"recently_learned_faces"	543.289	542.189
544.343	"famous_faces_correct_combination"	0	"right"	1.435	2.508	"famous_faces"	546.828	545.778
547.887	"famous_faces_correct_combination"	1	"left"	1.765	2.508	"famous_faces"	550.366	549.652
551.214	"recently_learned_faces_false_combination"	1	"right"	1.746	2.507	"recently_learned_faces"	553.703	552.96
554.808	"famous_faces_baseline"	1	"left"	1.537	2.507	"famous_faces_baseline"	557.292	556.345
558.135	"famous_faces_false_combination"	1	"right"	2.459	2.524	"famous_faces"	560.629	560.594
561.729	"famous_faces_false_combination"	1	"right"	1.407	2.507	"famous_faces"	564.218	563.136
565.323	"famous_faces_false_combination"	1	"right"	2.069	2.507	"famous_faces"	567.807	567.392
568.666	"recently_learned_faces_false_combination"	1	"right"	2.033	2.507	"recently_learned_faces"	571.144	570.699
572.093	"recently_learned_faces_false_combination"	1	"right"	1.295	2.507	"recently_learned_faces"	574.582	573.388
577.793	"recently_learned_faces_baseline"	1	"left"	1.169	2.508	"recently_learned_faces_baseline"	580.272	578.962
581.22	"recently_learned_faces_baseline"	1	"right"	1.253	2.507	"recently_learned_faces_baseline"	583.71	582.473
584.914	"recently_learned_faces_false_combination"	0	"left"	2.351	2.508	"recently_learned_faces"	587.399	587.265
588.358	"famous_faces_correct_combination"	0	"right"	1.228	2.507	"famous_faces"	590.837	589.586
591.785	"recently_learned_faces_baseline"	1	"right"	1.109	2.507	"recently_learned_faces_baseline"	594.275	592.894
595.329	"famous_faces_correct_combination"	1	"left"	1.28	2.507	"famous_faces"	597.814	596.609
598.872	"famous_faces_baseline"	1	"left"	1.281	2.508	"famous_faces_baseline"	601.352	600.153
602.149	"recently_learned_faces_false_combination"	0	"left"	1.51	2.507	"recently_learned_faces"	604.639	603.659
605.743	"recently_learned_faces_false_combination"	1	"right"	1.473	2.507	"recently_learned_faces"	608.228	607.216
609.187	"famous_faces_baseline"	1	"right"	1.713	2.507	"famous_faces_baseline"	611.666	610.9
612.714	"famous_faces_baseline"	1	"right"	1.269	2.507	"famous_faces_baseline"	615.205	613.983
616.308	"recently_learned_faces_baseline"	0	"right"	0.538	2.507	"recently_learned_faces_baseline"	618.794	616.846
619.751	"famous_faces_correct_combination"	0	"right"	1.311	2.508	"famous_faces"	622.232	621.062
625.284	"famous_faces_correct_combination"	0	"right"	1.938	2.508	"famous_faces"	627.771	627.222
628.828	"famous_faces_false_combination"	1	"right"	1.254	2.508	"famous_faces"	631.31	630.082
632.205	"famous_faces_correct_combination"	1	"left"	1.325	2.508	"famous_faces"	634.698	633.53
635.849	"famous_faces_false_combination"	1	"right"	1.902	2.508	"famous_faces"	638.337	637.751
639.393	"recently_learned_faces_false_combination"	1	"right"	1.232	2.508	"recently_learned_faces"	641.875	640.625
642.72	"famous_faces_false_combination"	1	"right"	1.417	2.507	"famous_faces"	645.212	644.137
646.264	"famous_faces_false_combination"	1	"right"	1.169	2.507	"famous_faces"	648.751	647.433
649.807	"recently_learned_faces_correct_combination"	0	"right"	1.398	2.508	"recently_learned_faces"	652.29	651.205
653.134	"famous_faces_baseline"	1	"left"	0.993	2.508	"famous_faces_baseline"	655.627	654.127
656.828	"recently_learned_faces_correct_combination"	0	"right"	1.045	2.508	"recently_learned_faces"	659.316	657.873
660.122	"recently_learned_faces_false_combination"	1	"right"	1.271	2.507	"recently_learned_faces"	662.603	661.393
663.699	"famous_faces_baseline"	1	"right"	1.468	2.507	"famous_faces_baseline"	666.192	665.167
667.293	"famous_faces_false_combination"	1	"right"	1.303	2.507	"famous_faces"	669.781	668.596
672.926	"recently_learned_faces_correct_combination"	0	"right"	1.345	2.508	"recently_learned_faces"	675.42	674.271
676.27	"recently_learned_faces_baseline"	1	"left"	1.147	2.507	"recently_learned_faces_baseline"	678.757	677.417
679.864	"recently_learned_faces_correct_combination"	1	"left"	1.277	2.507	"recently_learned_faces"	682.346	681.141
683.291	"famous_faces_false_combination"	1	"right"	1.409	2.507	"famous_faces"	685.784	684.7
686.684	"recently_learned_faces_correct_combination"	0	"right"	1.422	2.507	"recently_learned_faces"	689.172	688.106
690.228	"famous_faces_baseline"	1	"left"	1.098	2.507	"famous_faces_baseline"	692.71	691.326
693.805	"famous_faces_baseline"	1	"left"	0.935	2.524	"famous_faces_baseline"	696.299	694.74
697.249	"famous_faces_correct_combination"	1	"left"	1.856	2.507	"famous_faces"	699.737	699.105
700.843	"recently_learned_faces_false_combination"	1	"right"	1.143	2.507	"recently_learned_faces"	703.326	701.986
704.119	"recently_learned_faces_correct_combination"	0	"right"	1.188	2.508	"recently_learned_faces"	706.613	705.307
707.763	"recently_learned_faces_correct_combination"	0	"right"	1.318	2.508	"recently_learned_faces"	710.252	709.081
711.207	"famous_faces_baseline"	1	"left"	1.132	2.507	"famous_faces_baseline"	713.69	712.339
714.801	"recently_learned_faces_baseline"	1	"right"	1.097	2.507	"recently_learned_faces_baseline"	717.279	715.898
720.384	"famous_faces_false_combination"	1	"right"	1.847	2.508	"famous_faces"	722.869	722.231
723.728	"famous_faces_baseline"	1	"left"	1.014	2.507	"famous_faces_baseline"	726.206	724.742
727.405	"recently_learned_faces_false_combination"	0	"left"	2.233	2.508	"recently_learned_faces"	729.895	729.638
730.749	"famous_faces_correct_combination"	0	"right"	1.437	2.507	"famous_faces"	733.232	732.186
734.292	"recently_learned_faces_correct_combination"	0	"right"	1.266	2.508	"recently_learned_faces"	736.771	735.558
737.82	"recently_learned_faces_correct_combination"	0	"right"	0.886	2.507	"recently_learned_faces"	740.31	738.706
741.213	"famous_faces_correct_combination"	0	"right"	1.039	2.507	"famous_faces"	743.697	742.252
744.757	"recently_learned_faces_correct_combination"	0	"right"	1.436	2.507	"recently_learned_faces"	747.236	746.193
748.134	"recently_learned_faces_false_combination"	1	"right"	1.025	2.507	"recently_learned_faces"	750.624	749.159
751.828	"recently_learned_faces_baseline"	1	"right"	0.924	2.507	"recently_learned_faces_baseline"	754.313	752.752
755.171	"recently_learned_faces_correct_combination"	0	"right"	1.123	2.508	"recently_learned_faces"	757.65	756.294
758.698	"recently_learned_faces_false_combination"	1	"right"	0.758	2.508	"recently_learned_faces"	761.189	759.456
762.092	"recently_learned_faces_correct_combination"	0	"right"	0.607	2.507	"recently_learned_faces"	764.577	762.699
767.826	"recently_learned_faces_baseline"	1	"right"	1.531	2.507	"recently_learned_faces_baseline"	770.316	769.357
771.269	"famous_faces_false_combination"	1	"right"	0.957	2.508	"famous_faces"	773.754	772.226
774.713	"famous_faces_correct_combination"	1	"left"	0.981	2.507	"famous_faces"	777.192	775.694
778.34	"recently_learned_faces_false_combination"	1	"right"	1.108	2.508	"recently_learned_faces"	780.831	779.448
781.884	"famous_faces_baseline"	1	"left"	1.147	2.508	"famous_faces_baseline"	784.369	783.031
785.177	"famous_faces_correct_combination"	0	"right"	1.367	2.508	"famous_faces"	787.656	786.544
788.704	"famous_faces_correct_combination"	1	"left"	1.306	2.508	"famous_faces"	791.194	790.01
792.349	"famous_faces_correct_combination"	1	"left"	1.05	2.507	"famous_faces"	794.833	793.399
