onset	duration	trial_type	accuracy	button	response_time	trial_type_less_granular	time_to_offset_alternative_onset	time_to_RT_alternative_onset_or_duration
7.94600000000003	2.524	recently_learned_faces_baseline	1	right	2.036	recently_learned_faces_baseline	10.44	9.98200000000003
11.29	2.507	recently_learned_faces_baseline	1	right	1.568	recently_learned_faces_baseline	13.777	12.858
14.833	2.508	famous_faces_baseline	0	right	0.72	famous_faces_baseline	17.316	15.553
18.21	2.524	famous_faces_baseline	1	right	2.214	famous_faces_baseline	20.704	20.424
21.854	2.508	famous_faces_false_combination	1	right	1.806	famous_faces	24.343	23.66
25.248	2.507	famous_faces_correct_combination	0	right	1.376	famous_faces	27.73	26.624
28.675	2.524	recently_learned_faces_false_combination	1	right	1.144	recently_learned_faces	31.168	29.819
32.319	2.507	recently_learned_faces_false_combination	1	right	1.606	recently_learned_faces	34.807	33.925
35.762	2.508	famous_faces_false_combination	1	right	1.129	famous_faces	38.245	36.891
39.34	2.524	famous_faces_baseline	1	left	1.465	famous_faces_baseline	41.834	40.805
42.683	2.507	recently_learned_faces_baseline	1	left	1.366	recently_learned_faces_baseline	45.171	44.049
46.327	2.508	famous_faces_false_combination	1	right	1.71	famous_faces	48.81	48.037
49.604	2.524	famous_faces_baseline	0	left	1.968	famous_faces_baseline	52.097	51.572
55.454	2.508	famous_faces_baseline	1	right	2.396	famous_faces_baseline	57.939	57.85
58.798	2.507	recently_learned_faces_correct_combination	0	right	1.373	recently_learned_faces	61.276	60.171
62.325	2.507	recently_learned_faces_false_combination	0	left	2.026	recently_learned_faces	64.815	64.351
65.718	2.508	famous_faces_correct_combination	1	left	1.661	famous_faces	68.203	67.379
69.362	2.508	famous_faces_false_combination	1	right	1.194	famous_faces	71.842	70.556
72.739	2.508	recently_learned_faces_false_combination	0	left	1.708	recently_learned_faces	75.229	74.447
76.283	2.508	famous_faces_false_combination	1	right	1.948	famous_faces	78.768	78.231
79.676	2.508	recently_learned_faces_false_combination	1	right	1.684	recently_learned_faces	82.156	81.36
83.304	2.507	recently_learned_faces_false_combination	0	left	1.39	recently_learned_faces	85.795	84.694
86.848	2.507	famous_faces_baseline	1	right	1.492	famous_faces_baseline	89.333	88.34
90.141	2.507	famous_faces_baseline	1	right	1.457	famous_faces_baseline	92.62	91.598
93.819	2.507	famous_faces_false_combination	1	right	1.678	famous_faces	96.309	95.497
97.162	2.507	recently_learned_faces_false_combination	0	left	1.543	recently_learned_faces	99.646	98.705
102.896	2.524	recently_learned_faces_correct_combination	1	left	2.014	recently_learned_faces	105.388	104.91
106.289	2.508	famous_faces_correct_combination	0	right	1.918	famous_faces	108.775	108.207
109.733	2.507	recently_learned_faces_correct_combination	1	left	2.416	recently_learned_faces	112.213	112.149
113.41	2.508	recently_learned_faces_false_combination	1	right	2.131	recently_learned_faces	115.902	115.541
116.804	2.507	recently_learned_faces_correct_combination	1	left	1.204	recently_learned_faces	119.29	118.008
120.398	2.507	famous_faces_correct_combination	1	left	2.466	famous_faces	122.879	122.864
123.724	2.508	famous_faces_correct_combination	0	right	1.258	famous_faces	126.216	124.982
127.168	2.507	recently_learned_faces_correct_combination	1	left	1.012	recently_learned_faces	129.654	128.18
130.762	2.507	famous_faces_baseline	0	right	0.86	famous_faces_baseline	133.243	131.622
134.289	2.524	recently_learned_faces_baseline	1	right	1.833	recently_learned_faces_baseline	136.782	136.122
137.683	2.507	famous_faces_baseline	0	right	1.395	famous_faces_baseline	140.169	139.078
141.126	2.508	famous_faces_correct_combination	1	left	1.192	famous_faces	143.607	142.318
144.804	2.524	recently_learned_faces_correct_combination	0	right	1.416	recently_learned_faces	147.296	146.22
150.304	2.507	famous_faces_baseline	1	right	1.312	famous_faces_baseline	152.785	151.616
153.931	2.507	famous_faces_correct_combination	0	right	1.662	famous_faces	156.424	155.593
157.224	2.508	famous_faces_baseline	0	left	1.084	famous_faces_baseline	159.711	158.308
160.868	2.508	recently_learned_faces_correct_combination	1	left	1.031	recently_learned_faces	163.35	161.899
164.295	2.524	recently_learned_faces_baseline	1	left	1.222	recently_learned_faces_baseline	166.788	165.517
167.739	2.507	recently_learned_faces_correct_combination	1	left	1.002	recently_learned_faces	170.226	168.741
171.182	2.508	recently_learned_faces_correct_combination	0	right	1.159	recently_learned_faces	173.664	172.341
174.86	2.524	recently_learned_faces_correct_combination	0	right	1.369	recently_learned_faces	177.353	176.229
178.304	2.507	famous_faces_false_combination	1	right	1.571	famous_faces	180.791	179.875
181.747	2.508	recently_learned_faces_baseline	1	left	1.091	recently_learned_faces_baseline	184.229	182.838
185.324	2.525	famous_faces_false_combination	1	right	1.659	famous_faces	187.818	186.983
188.618	2.507	famous_faces_false_combination	1	right	1.301	famous_faces	191.105	189.919
192.161	2.508	famous_faces_baseline	1	right	1.197	famous_faces_baseline	194.643	193.358
197.795	2.507	recently_learned_faces_false_combination	0	NA	NA	recently_learned_faces	200.284	NA
201.238	2.508	famous_faces_false_combination	1	right	1.22	famous_faces	203.722	202.458
204.832	2.508	recently_learned_faces_correct_combination	0	right	1.335	recently_learned_faces	207.311	206.167
208.36	2.507	famous_faces_false_combination	1	right	1.315	famous_faces	210.85	209.675
211.904	2.507	famous_faces_baseline	1	left	1.34	famous_faces_baseline	214.388	213.244
215.297	2.507	recently_learned_faces_false_combination	0	left	1.018	recently_learned_faces	217.776	216.315
218.724	2.507	recently_learned_faces_false_combination	1	right	1.754	recently_learned_faces	221.214	220.478
222.318	2.507	famous_faces_correct_combination	1	left	2.07	famous_faces	224.803	224.388
225.661	2.508	recently_learned_faces_baseline	0	left	1.609	recently_learned_faces_baseline	228.14	227.27
229.339	2.507	famous_faces_baseline	1	right	1.073	famous_faces_baseline	231.829	230.412
232.732	2.508	recently_learned_faces_baseline	1	left	1.523	recently_learned_faces_baseline	235.217	234.255
236.126	2.507	recently_learned_faces_baseline	1	right	1.848	recently_learned_faces_baseline	238.605	237.974
239.803	2.508	recently_learned_faces_false_combination	0	left	1.753	recently_learned_faces	242.294	241.556
245.403	2.508	recently_learned_faces_baseline	1	right	1.136	recently_learned_faces_baseline	247.883	246.539
248.78	2.507	famous_faces_correct_combination	0	right	1.02	famous_faces	251.27	249.8
252.224	2.507	famous_faces_correct_combination	0	right	1.151	famous_faces	254.708	253.375
255.818	2.507	famous_faces_baseline	1	right	1.057	famous_faces_baseline	258.297	256.875
259.395	2.507	recently_learned_faces_correct_combination	1	left	1.232	recently_learned_faces	261.886	260.627
262.738	2.508	recently_learned_faces_correct_combination	1	left	1.021	recently_learned_faces	265.223	263.759
266.382	2.508	famous_faces_correct_combination	1	left	1.782	famous_faces	268.862	268.164
269.759	2.508	famous_faces_false_combination	1	right	1.275	famous_faces	272.25	271.034
273.153	2.507	famous_faces_correct_combination	0	right	1.504	famous_faces	275.638	274.657
276.797	2.507	famous_faces_baseline	1	left	1.393	famous_faces_baseline	279.277	278.19
280.324	2.507	recently_learned_faces_correct_combination	1	left	1.265	recently_learned_faces	282.815	281.589
283.617	2.508	famous_faces_false_combination	1	right	1.443	famous_faces	286.102	285.06
287.211	2.508	recently_learned_faces_correct_combination	0	right	1.272	recently_learned_faces	289.691	288.483
292.744	2.508	recently_learned_faces_correct_combination	0	NA	NA	recently_learned_faces	295.231	NA
296.388	2.508	famous_faces_false_combination	1	right	1.607	famous_faces	298.87	297.995
299.765	2.508	famous_faces_false_combination	1	right	1.059	famous_faces	302.257	300.824
303.309	2.508	recently_learned_faces_baseline	0	left	1.371	recently_learned_faces_baseline	305.796	304.68
306.903	2.508	famous_faces_correct_combination	0	right	1.573	famous_faces	309.385	308.476
310.18	2.507	recently_learned_faces_baseline	1	left	1.232	recently_learned_faces_baseline	312.672	311.412
313.824	2.507	famous_faces_correct_combination	1	left	1.988	famous_faces	316.311	315.812
317.267	2.508	recently_learned_faces_correct_combination	1	left	1.047	recently_learned_faces	319.749	318.314
320.694	2.508	recently_learned_faces_false_combination	1	right	1.304	recently_learned_faces	323.187	321.998
324.338	2.508	recently_learned_faces_false_combination	1	right	2.113	recently_learned_faces	326.826	326.451
327.732	2.507	recently_learned_faces_correct_combination	1	left	1.391	recently_learned_faces	330.214	329.123
331.109	2.524	recently_learned_faces_baseline	1	right	0.967	recently_learned_faces_baseline	333.602	332.076
334.753	2.507	famous_faces_correct_combination	1	left	1.558	famous_faces	337.241	336.311
340.286	2.507	recently_learned_faces_baseline	1	left	1.518	recently_learned_faces_baseline	342.779	341.804
343.729	2.508	recently_learned_faces_baseline	1	right	1.073	recently_learned_faces_baseline	346.217	344.802
347.424	2.507	famous_faces_false_combination	1	right	1.65	famous_faces	349.906	349.074
350.851	2.507	recently_learned_faces_correct_combination	0	right	1.811	recently_learned_faces	353.344	352.662
354.294	2.508	famous_faces_false_combination	1	right	1.22	famous_faces	356.782	355.514
357.888	2.508	recently_learned_faces_baseline	1	right	1.275	recently_learned_faces_baseline	360.371	359.163
361.315	2.524	recently_learned_faces_baseline	0	right	0.79	recently_learned_faces_baseline	363.809	362.105
364.658	2.508	recently_learned_faces_false_combination	0	left	1.942	recently_learned_faces	367.146	366.6
368.202	2.508	famous_faces_false_combination	1	right	1.496	famous_faces	370.684	369.698
371.729	2.525	famous_faces_correct_combination	1	left	0.913	famous_faces	374.223	372.642
375.324	2.507	famous_faces_false_combination	1	right	1.437	famous_faces	377.812	376.761
378.717	2.507	recently_learned_faces_baseline	1	right	1.582	recently_learned_faces_baseline	381.2	380.299
382.094	2.524	recently_learned_faces_false_combination	1	right	1.852	recently_learned_faces	384.588	383.946
387.794	2.507	recently_learned_faces_baseline	1	left	1.261	recently_learned_faces_baseline	390.278	389.055
391.388	2.507	famous_faces_false_combination	1	right	1.429	famous_faces	393.867	392.817
394.715	2.507	famous_faces_correct_combination	1	left	2.449	famous_faces	397.204	397.164
398.409	2.507	recently_learned_faces_baseline	0	left	1.372	recently_learned_faces_baseline	400.893	399.781
401.802	2.508	recently_learned_faces_correct_combination	0	right	1.387	recently_learned_faces	404.281	403.189
405.38	2.507	famous_faces_correct_combination	0	right	1.214	famous_faces	407.87	406.594
408.673	2.507	recently_learned_faces_false_combination	0	NA	NA	recently_learned_faces	411.157	NA
412.267	2.507	famous_faces_correct_combination	1	left	1.61	famous_faces	414.746	413.877
415.794	2.507	famous_faces_false_combination	1	right	1.457	famous_faces	418.285	417.251
419.187	2.508	famous_faces_baseline	0	left	1.6	famous_faces_baseline	421.672	420.787
422.832	2.507	famous_faces_correct_combination	1	left	1.652	famous_faces	425.311	424.484
426.158	2.508	famous_faces_baseline	0	left	1.561	famous_faces_baseline	428.648	427.719
429.602	2.507	famous_faces_baseline	1	left	2.204	famous_faces_baseline	432.086	431.806
435.235	2.508	recently_learned_faces_baseline	1	left	1.389	recently_learned_faces_baseline	437.726	436.624
438.93	2.507	recently_learned_faces_false_combination	1	right	1.389	recently_learned_faces	441.415	440.319
442.273	2.507	recently_learned_faces_correct_combination	1	left	2.409	recently_learned_faces	444.752	444.682
445.8	2.507	recently_learned_faces_baseline	0	right	1.014	recently_learned_faces_baseline	448.291	446.814
449.344	2.507	recently_learned_faces_false_combination	0	left	1.363	recently_learned_faces	451.83	450.707
452.687	2.508	recently_learned_faces_baseline	1	left	0.983	recently_learned_faces_baseline	455.167	453.67
456.214	2.508	recently_learned_faces_baseline	1	left	1.534	recently_learned_faces_baseline	458.705	457.748
459.758	2.508	famous_faces_baseline	1	left	1.282	famous_faces_baseline	462.244	461.04
463.352	2.508	famous_faces_correct_combination	1	left	1.515	famous_faces	465.833	464.867
466.779	2.508	famous_faces_baseline	1	right	1.156	famous_faces_baseline	469.271	467.935
470.173	2.507	famous_faces_false_combination	1	right	1.232	famous_faces	472.658	471.405
473.616	2.508	famous_faces_false_combination	1	right	1.048	famous_faces	476.096	474.664
477.194	2.507	recently_learned_faces_baseline	0	right	0.839	recently_learned_faces_baseline	479.685	478.033
482.793	2.508	famous_faces_baseline	0	left	1.65	famous_faces_baseline	485.275	484.443
486.22	2.508	recently_learned_faces_correct_combination	0	right	1.647	recently_learned_faces	488.713	487.867
489.915	2.507	recently_learned_faces_baseline	1	left	1.687	recently_learned_faces_baseline	492.402	491.602
493.358	2.508	recently_learned_faces_correct_combination	0	right	2.224	recently_learned_faces	495.84	495.582
496.785	2.508	famous_faces_baseline	1	left	1.238	famous_faces_baseline	499.278	498.023
500.229	2.507	recently_learned_faces_false_combination	1	right	2.001	recently_learned_faces	502.716	502.23
503.773	2.507	famous_faces_false_combination	1	right	1.299	famous_faces	506.255	505.072
507.35	2.507	recently_learned_faces_baseline	0	NA	NA	recently_learned_faces_baseline	509.844	NA
510.643	2.508	famous_faces_baseline	1	right	1.248	famous_faces_baseline	513.131	511.891
514.287	2.508	recently_learned_faces_false_combination	1	right	1.686	recently_learned_faces	516.77	515.973
517.714	2.508	famous_faces_baseline	1	left	1.59	famous_faces_baseline	520.208	519.304
521.108	2.507	famous_faces_false_combination	1	right	1.309	famous_faces	523.596	522.417
524.752	2.507	recently_learned_faces_false_combination	1	right	1.801	recently_learned_faces	527.235	526.553
530.285	2.507	famous_faces_correct_combination	0	right	1.549	famous_faces	532.774	531.834
533.929	2.508	recently_learned_faces_false_combination	1	right	1.849	recently_learned_faces	536.413	535.778
537.206	2.507	recently_learned_faces_baseline	1	right	1.128	recently_learned_faces_baseline	539.7	538.334
540.8	2.507	recently_learned_faces_correct_combination	0	right	1.389	recently_learned_faces	543.289	542.189
544.343	2.508	famous_faces_correct_combination	0	right	1.435	famous_faces	546.828	545.778
547.887	2.508	famous_faces_correct_combination	1	left	1.765	famous_faces	550.366	549.652
551.214	2.507	recently_learned_faces_false_combination	1	right	1.746	recently_learned_faces	553.703	552.96
554.808	2.507	famous_faces_baseline	1	left	1.537	famous_faces_baseline	557.292	556.345
558.135	2.524	famous_faces_false_combination	1	right	2.459	famous_faces	560.629	560.594
561.729	2.507	famous_faces_false_combination	1	right	1.407	famous_faces	564.218	563.136
565.323	2.507	famous_faces_false_combination	1	right	2.069	famous_faces	567.807	567.392
568.666	2.507	recently_learned_faces_false_combination	1	right	2.033	recently_learned_faces	571.144	570.699
572.093	2.507	recently_learned_faces_false_combination	1	right	1.295	recently_learned_faces	574.582	573.388
577.793	2.508	recently_learned_faces_baseline	1	left	1.169	recently_learned_faces_baseline	580.272	578.962
581.22	2.507	recently_learned_faces_baseline	1	right	1.253	recently_learned_faces_baseline	583.71	582.473
584.914	2.508	recently_learned_faces_false_combination	0	left	2.351	recently_learned_faces	587.399	587.265
588.358	2.507	famous_faces_correct_combination	0	right	1.228	famous_faces	590.837	589.586
591.785	2.507	recently_learned_faces_baseline	1	right	1.109	recently_learned_faces_baseline	594.275	592.894
595.329	2.507	famous_faces_correct_combination	1	left	1.28	famous_faces	597.814	596.609
598.872	2.508	famous_faces_baseline	1	left	1.281	famous_faces_baseline	601.352	600.153
602.149	2.507	recently_learned_faces_false_combination	0	left	1.51	recently_learned_faces	604.639	603.659
605.743	2.507	recently_learned_faces_false_combination	1	right	1.473	recently_learned_faces	608.228	607.216
609.187	2.507	famous_faces_baseline	1	right	1.713	famous_faces_baseline	611.666	610.9
612.714	2.507	famous_faces_baseline	1	right	1.269	famous_faces_baseline	615.205	613.983
616.308	2.507	recently_learned_faces_baseline	0	right	0.538	recently_learned_faces_baseline	618.794	616.846
619.751	2.508	famous_faces_correct_combination	0	right	1.311	famous_faces	622.232	621.062
625.284	2.508	famous_faces_correct_combination	0	right	1.938	famous_faces	627.771	627.222
628.828	2.508	famous_faces_false_combination	1	right	1.254	famous_faces	631.31	630.082
632.205	2.508	famous_faces_correct_combination	1	left	1.325	famous_faces	634.698	633.53
635.849	2.508	famous_faces_false_combination	1	right	1.902	famous_faces	638.337	637.751
639.393	2.508	recently_learned_faces_false_combination	1	right	1.232	recently_learned_faces	641.875	640.625
642.72	2.507	famous_faces_false_combination	1	right	1.417	famous_faces	645.212	644.137
646.264	2.507	famous_faces_false_combination	1	right	1.169	famous_faces	648.751	647.433
649.807	2.508	recently_learned_faces_correct_combination	0	right	1.398	recently_learned_faces	652.29	651.205
653.134	2.508	famous_faces_baseline	1	left	0.993	famous_faces_baseline	655.627	654.127
656.828	2.508	recently_learned_faces_correct_combination	0	right	1.045	recently_learned_faces	659.316	657.873
660.122	2.507	recently_learned_faces_false_combination	1	right	1.271	recently_learned_faces	662.603	661.393
663.699	2.507	famous_faces_baseline	1	right	1.468	famous_faces_baseline	666.192	665.167
667.293	2.507	famous_faces_false_combination	1	right	1.303	famous_faces	669.781	668.596
672.926	2.508	recently_learned_faces_correct_combination	0	right	1.345	recently_learned_faces	675.42	674.271
676.27	2.507	recently_learned_faces_baseline	1	left	1.147	recently_learned_faces_baseline	678.757	677.417
679.864	2.507	recently_learned_faces_correct_combination	1	left	1.277	recently_learned_faces	682.346	681.141
683.291	2.507	famous_faces_false_combination	1	right	1.409	famous_faces	685.784	684.7
686.684	2.507	recently_learned_faces_correct_combination	0	right	1.422	recently_learned_faces	689.172	688.106
690.228	2.507	famous_faces_baseline	1	left	1.098	famous_faces_baseline	692.71	691.326
693.805	2.524	famous_faces_baseline	1	left	0.935	famous_faces_baseline	696.299	694.74
697.249	2.507	famous_faces_correct_combination	1	left	1.856	famous_faces	699.737	699.105
700.843	2.507	recently_learned_faces_false_combination	1	right	1.143	recently_learned_faces	703.326	701.986
704.119	2.508	recently_learned_faces_correct_combination	0	right	1.188	recently_learned_faces	706.613	705.307
707.763	2.508	recently_learned_faces_correct_combination	0	right	1.318	recently_learned_faces	710.252	709.081
711.207	2.507	famous_faces_baseline	1	left	1.132	famous_faces_baseline	713.69	712.339
714.801	2.507	recently_learned_faces_baseline	1	right	1.097	recently_learned_faces_baseline	717.279	715.898
720.384	2.508	famous_faces_false_combination	1	right	1.847	famous_faces	722.869	722.231
723.728	2.507	famous_faces_baseline	1	left	1.014	famous_faces_baseline	726.206	724.742
727.405	2.508	recently_learned_faces_false_combination	0	left	2.233	recently_learned_faces	729.895	729.638
730.749	2.507	famous_faces_correct_combination	0	right	1.437	famous_faces	733.232	732.186
734.292	2.508	recently_learned_faces_correct_combination	0	right	1.266	recently_learned_faces	736.771	735.558
737.82	2.507	recently_learned_faces_correct_combination	0	right	0.886	recently_learned_faces	740.31	738.706
741.213	2.507	famous_faces_correct_combination	0	right	1.039	famous_faces	743.697	742.252
744.757	2.507	recently_learned_faces_correct_combination	0	right	1.436	recently_learned_faces	747.236	746.193
748.134	2.507	recently_learned_faces_false_combination	1	right	1.025	recently_learned_faces	750.624	749.159
751.828	2.507	recently_learned_faces_baseline	1	right	0.924	recently_learned_faces_baseline	754.313	752.752
755.171	2.508	recently_learned_faces_correct_combination	0	right	1.123	recently_learned_faces	757.65	756.294
758.698	2.508	recently_learned_faces_false_combination	1	right	0.758	recently_learned_faces	761.189	759.456
762.092	2.507	recently_learned_faces_correct_combination	0	right	0.607	recently_learned_faces	764.577	762.699
767.826	2.507	recently_learned_faces_baseline	1	right	1.531	recently_learned_faces_baseline	770.316	769.357
771.269	2.508	famous_faces_false_combination	1	right	0.957	famous_faces	773.754	772.226
774.713	2.507	famous_faces_correct_combination	1	left	0.981	famous_faces	777.192	775.694
778.34	2.508	recently_learned_faces_false_combination	1	right	1.108	recently_learned_faces	780.831	779.448
781.884	2.508	famous_faces_baseline	1	left	1.147	famous_faces_baseline	784.369	783.031
785.177	2.508	famous_faces_correct_combination	0	right	1.367	famous_faces	787.656	786.544
788.704	2.508	famous_faces_correct_combination	1	left	1.306	famous_faces	791.194	790.01
792.349	2.507	famous_faces_correct_combination	1	left	1.05	famous_faces	794.833	793.399
