"onset"	"trial_type"	"accuracy"	"button"	"response_time"	"duration"	"time_to_offset_alternative_onset"	"time_to_RT_alternative_onset_or_duration"
10.938	"Visual_Lure"	0	"right"	0.896	1.788	12.726	11.834
13.378	"Visual_Different"	1	"left"	0.51	1.789	15.167	13.888
15.819	"Visual_Same"	1	"right"	0.792	1.789	17.608	16.611
18.41	"Visual_Different"	1	"left"	0.516	1.588	19.998	18.926
20.751	"Visual_Different"	1	"left"	0.69	1.772	22.523	21.441
23.375	"Visual_Same"	1	"right"	1.044	1.789	25.164	24.419
25.715	"Visual_Same"	1	"right"	0.731	1.789	27.504	26.446
33.388	"Auditory_Same"	1	"right"	1.228	1.789	35.177	34.616
35.779	"Auditory_Different"	1	"left"	0.769	1.789	37.568	36.548
38.42	"Auditory_Same"	1	"right"	0.763	1.789	40.209	39.183
40.71	"Auditory_Lure"	1	"left"	0.839	1.789	42.499	41.549
43.302	"Auditory_Lure"	1	"left"	1.05	1.771	45.073	44.352
45.876	"Auditory_Different"	1	"left"	0.879	1.789	47.665	46.755
48.317	"Auditory_Different"	1	"left"	0.92	1.788	50.105	49.237
55.739	"Visual_Different"	1	"left"	1.054	1.788	57.527	56.793
58.38	"Visual_Same"	1	"right"	1.738	1.789	60.169	60.118
60.971	"Visual_Different"	1	"left"	0.876	1.638	62.609	61.847
63.211	"Visual_Lure"	1	"left"	1.046	1.789	65	64.257
65.886	"Visual_Lure"	1	"left"	1.474	1.789	67.675	67.36
68.276	"Visual_Same"	1	"right"	0.909	1.789	70.065	69.185
75.749	"Auditory_Lure"	1	"left"	0.865	1.788	77.537	76.614
78.323	"Auditory_Different"	1	"left"	0.762	1.789	80.112	79.085
80.764	"Auditory_Same"	1	"right"	0.833	1.788	82.552	81.597
83.305	"Auditory_Different"	1	"left"	0.797	1.788	85.093	84.102
85.846	"Auditory_Different"	1	"left"	0.787	1.789	87.635	86.633
88.236	"Auditory_Same"	1	"right"	1.075	1.789	90.025	89.311
90.66	"Auditory_Same"	1	"right"	1.111	1.789	92.449	91.771
98.4	"Visual_Different"	1	"left"	0.731	1.789	100.189	99.131
100.774	"Visual_Different"	1	"left"	0.541	1.789	102.563	101.315
103.365	"Visual_Lure"	0	"right"	0.734	1.789	105.154	104.099
105.906	"Visual_Different"	1	"left"	0.636	1.789	107.695	106.542
108.296	"Visual_Same"	1	"right"	0.886	1.789	110.085	109.182
115.936	"Auditory_Different"	1	"left"	0.943	1.789	117.725	116.879
118.276	"Auditory_Different"	1	"left"	0.788	1.789	120.065	119.064
120.717	"Auditory_Lure"	0	"right"	1.16	1.789	122.506	121.877
123.308	"Auditory_Same"	1	"right"	1.248	1.789	125.097	124.556
125.849	"Auditory_Same"	1	"right"	1.041	1.789	127.638	126.89
128.373	"Auditory_Different"	1	"left"	0.969	1.789	130.162	129.342
135.795	"Visual_Same"	0	"left"	1.38	1.789	137.584	137.175
138.236	"Visual_Same"	1	"right"	0.881	1.789	140.025	139.117
140.811	"Visual_Different"	1	"left"	0.749	1.788	142.599	141.56
143.402	"Visual_Same"	1	"right"	0.865	1.788	145.19	144.267
145.742	"Visual_Lure"	1	"left"	0.905	1.789	147.531	146.647
153.248	"Auditory_Lure"	1	"left"	0.782	1.789	155.037	154.03
155.889	"Auditory_Lure"	1	"left"	1.147	1.772	157.661	157.036
158.413	"Auditory_Different"	1	"left"	1.357	1.789	160.202	159.77
160.804	"Auditory_Same"	1	"right"	0.951	1.788	162.592	161.755
163.244	"Auditory_Lure"	1	"left"	0.83	1.789	165.033	164.074
170.734	"Visual_Lure"	1	"left"	1.307	1.788	172.522	172.041
173.375	"Visual_Lure"	1	"left"	0.848	1.788	175.163	174.223
175.916	"Visual_Same"	1	"right"	0.777	1.788	177.704	176.693
178.356	"Visual_Different"	1	"left"	0.778	1.789	180.145	179.134
180.797	"Visual_Different"	1	"left"	0.833	1.789	182.586	181.63
183.221	"Visual_Lure"	0	"right"	0.686	1.789	185.01	183.907
190.944	"Auditory_Different"	1	"left"	1.25	1.789	192.733	192.194
193.234	"Auditory_Different"	1	"left"	1.113	1.789	195.023	194.347
195.759	"Auditory_Lure"	1	"left"	0.993	1.788	197.547	196.752
198.3	"Auditory_Different"	1	"left"	0.849	1.788	200.088	199.149
200.84	"Auditory_Same"	1	"right"	0.928	1.789	202.629	201.768
208.246	"Visual_Different"	1	"left"	0.899	1.789	210.035	209.145
210.887	"Visual_Same"	1	"right"	1.104	1.772	212.659	211.991
213.261	"Visual_Lure"	1	"left"	0.721	1.789	215.05	213.982
215.902	"Visual_Same"	1	"right"	0.973	1.789	217.691	216.875
218.293	"Visual_Same"	1	"right"	0.942	1.789	220.082	219.235
220.683	"Visual_Lure"	1	"left"	0.644	1.789	222.472	221.327
223.208	"Visual_Lure"	1	"left"	0.868	1.788	224.996	224.076
230.947	"Auditory_Different"	1	"left"	1.342	1.789	232.736	232.289
233.221	"Auditory_Different"	1	"left"	1.027	1.789	235.01	234.248
235.812	"Auditory_Same"	1	"right"	0.887	1.789	237.601	236.699
238.353	"Auditory_Lure"	1	"left"	0.924	1.789	240.142	239.277
240.743	"Auditory_Different"	1	"left"	0.91	1.789	242.532	241.653
248.4	"Visual_Different"	1	"left"	0.738	1.788	250.188	249.138
250.924	"Visual_Different"	1	"left"	0.67	1.789	252.713	251.594
253.314	"Visual_Lure"	1	"left"	0.822	1.789	255.103	254.136
255.705	"Visual_Same"	1	"right"	1.097	1.789	257.494	256.802
258.296	"Visual_Same"	1	"right"	0.918	1.789	260.085	259.214
260.837	"Visual_Different"	1	"left"	0.49	1.789	262.626	261.327
268.393	"Auditory_Same"	1	"right"	1.013	1.789	270.182	269.406
270.934	"Auditory_Same"	1	"right"	0.915	1.789	272.723	271.849
273.258	"Auditory_Different"	1	"left"	0.741	1.788	275.046	273.999
275.698	"Auditory_Lure"	1	"left"	0.716	1.789	277.487	276.414
278.289	"Auditory_Lure"	1	"left"	1.028	1.789	280.078	279.317
280.68	"Auditory_Same"	1	"right"	0.776	1.789	282.469	281.456
288.236	"Visual_Lure"	1	"left"	0.967	1.789	290.025	289.203
290.927	"Visual_Same"	1	"right"	0.865	1.789	292.716	291.792
293.268	"Visual_Lure"	1	"left"	0.607	1.788	295.056	293.875
295.859	"Visual_Different"	1	"left"	0.701	1.788	297.647	296.56
298.383	"Visual_Different"	1	"left"	0.812	1.789	300.172	299.195
300.673	"Visual_Same"	1	"right"	0.754	1.789	302.462	301.427
303.214	"Visual_Same"	1	"right"	0.768	1.789	305.003	303.982
310.937	"Auditory_Same"	1	"right"	0.917	1.789	312.726	311.854
313.328	"Auditory_Lure"	1	"left"	1.056	1.788	315.116	314.384
315.869	"Auditory_Different"	1	"left"	1	1.788	317.657	316.869
318.259	"Auditory_Lure"	1	"left"	1.142	1.789	320.048	319.401
320.834	"Auditory_Lure"	1	"left"	1.41	1.788	322.622	322.244
323.174	"Auditory_Different"	1	"left"	0.99	1.789	324.963	324.164
325.765	"Auditory_Different"	1	"left"	0.881	1.789	327.554	326.646
333.338	"Visual_Different"	1	"left"	0.679	1.788	335.126	334.017
335.778	"Visual_Different"	1	"left"	0.633	1.789	337.567	336.411
338.42	"Visual_Same"	1	"right"	1.005	1.788	340.208	339.425
340.81	"Visual_Lure"	1	"left"	0.835	1.789	342.599	341.645
343.184	"Visual_Different"	1	"left"	0.788	1.789	344.973	343.972
350.941	"Auditory_Lure"	1	"left"	1.247	1.788	352.729	352.188
353.281	"Auditory_Lure"	1	"left"	0.935	1.789	355.07	354.216
355.922	"Auditory_Same"	1	"right"	0.97	1.789	357.711	356.892
358.296	"Auditory_Different"	1	"left"	0.919	1.789	360.085	359.215
360.736	"Auditory_Different"	1	"left"	0.762	1.789	362.525	361.498
363.177	"Auditory_Lure"	1	"left"	1.092	1.789	364.966	364.269
370.884	"Visual_Same"	1	"right"	1.008	1.788	372.672	371.892
373.324	"Visual_Same"	1	"right"	0.755	1.789	375.113	374.079
375.915	"Visual_Lure"	1	"left"	0.685	1.789	377.704	376.6
378.256	"Visual_Different"	1	"left"	0.744	1.788	380.044	379
380.696	"Visual_Same"	1	"right"	0.849	1.789	382.485	381.545
388.386	"Auditory_Different"	1	"left"	0.945	1.789	390.175	389.331
390.726	"Auditory_Same"	1	"right"	0.855	1.789	392.515	391.581
393.418	"Auditory_Different"	1	"left"	0.858	1.789	395.207	394.276
395.808	"Auditory_Lure"	1	"left"	0.963	1.789	397.597	396.771
398.232	"Auditory_Lure"	1	"left"	0.822	1.789	400.021	399.054
400.823	"Auditory_Same"	1	"right"	0.895	1.789	402.612	401.718
408.396	"Visual_Lure"	1	"left"	0.781	1.789	410.185	409.177
410.72	"Visual_Lure"	1	"left"	0.663	1.788	412.508	411.383
413.361	"Visual_Different"	1	"left"	0.555	1.789	415.15	413.916
415.802	"Visual_Same"	1	"right"	0.872	1.788	417.59	416.674
418.393	"Visual_Lure"	1	"left"	0.789	1.788	420.181	419.182
425.748	"Auditory_Different"	1	"left"	0.953	1.772	427.52	426.701
428.322	"Auditory_Same"	1	"right"	0.907	1.789	430.111	429.229
430.763	"Auditory_Lure"	1	"left"	0.872	1.789	432.552	431.635
433.354	"Auditory_Same"	1	"right"	1.038	1.789	435.143	434.392
435.895	"Auditory_Same"	1	"right"	1.183	1.789	437.684	437.078
438.269	"Auditory_Lure"	1	"left"	0.931	1.789	440.058	439.2
440.81	"Auditory_Lure"	1	"left"	0.824	1.789	442.599	441.634
448.282	"Visual_Same"	1	"right"	0.92	1.789	450.071	449.202
450.823	"Visual_Lure"	1	"left"	0.69	1.789	452.612	451.513
453.214	"Visual_Different"	1	"left"	0.685	1.788	455.002	453.899
455.755	"Visual_Lure"	1	"left"	0.692	1.788	457.543	456.447
458.396	"Visual_Lure"	1	"left"	0.831	1.789	460.185	459.227
460.82	"Visual_Different"	1	"left"	0.579	1.789	462.609	461.399
463.361	"Visual_Different"	1	"left"	0.642	1.789	465.15	464.003
470.934	"Auditory_Same"	1	"right"	1.045	1.788	472.722	471.979
473.274	"Auditory_Lure"	1	"left"	0.695	1.789	475.063	473.969
475.715	"Auditory_Same"	1	"right"	0.94	1.788	477.503	476.655
478.306	"Auditory_Different"	1	"left"	0.989	1.788	480.094	479.295
480.897	"Auditory_Different"	1	"left"	1.312	1.788	482.685	482.209
483.321	"Auditory_Lure"	1	"left"	0.886	1.788	485.109	484.207
490.843	"Visual_Lure"	1	"left"	0.875	1.789	492.632	491.718
493.234	"Visual_Different"	1	"left"	0.6	1.788	495.022	493.834
495.758	"Visual_Lure"	1	"left"	0.981	1.789	497.547	496.739
498.349	"Visual_Same"	1	"right"	0.774	1.789	500.138	499.123
500.79	"Visual_Same"	1	"right"	0.754	1.788	502.578	501.544
503.381	"Visual_Different"	1	"left"	0.585	1.788	505.169	503.966
510.736	"Auditory_Lure"	1	"left"	0.979	1.789	512.525	511.715
513.277	"Auditory_Lure"	1	"left"	1.083	1.789	515.066	514.36
515.868	"Auditory_Same"	1	"right"	0.819	1.789	517.657	516.687
518.192	"Auditory_Lure"	1	"left"	0.795	1.789	519.981	518.987
520.733	"Auditory_Different"	1	"left"	1.111	1.789	522.522	521.844
528.289	"Visual_Same"	1	"right"	0.842	1.788	530.077	529.131
530.88	"Visual_Different"	1	"left"	0.547	1.789	532.669	531.427
533.22	"Visual_Same"	1	"right"	1.013	1.772	534.992	534.233
535.795	"Visual_Lure"	1	"left"	0.717	1.788	537.583	536.512
538.336	"Visual_Lure"	1	"left"	0.917	1.788	540.124	539.253
540.726	"Visual_Different"	1	"left"	0.623	1.789	542.515	541.349
543.367	"Visual_Different"	1	"left"	0.711	1.789	545.156	544.078
550.84	"Auditory_Different"	1	"left"	0.822	1.788	552.628	551.662
553.431	"Auditory_Lure"	1	"left"	0.786	1.789	555.22	554.217
555.871	"Auditory_Different"	1	"left"	1.143	1.789	557.66	557.014
558.245	"Auditory_Same"	1	"right"	0.845	1.789	560.034	559.09
560.887	"Auditory_Same"	1	"right"	0.879	1.788	562.675	561.766
563.177	"Auditory_Lure"	1	"left"	0.797	1.788	564.965	563.974
565.768	"Auditory_Lure"	1	"left"	1.111	1.788	567.556	566.879
573.24	"Visual_Lure"	1	"left"	0.64	1.789	575.029	573.88
575.881	"Visual_Lure"	1	"left"	0.756	1.789	577.67	576.637
578.406	"Visual_Same"	1	"right"	1.15	1.788	580.194	579.556
580.746	"Visual_Lure"	1	"left"	0.606	1.789	582.535	581.352
583.287	"Visual_Different"	1	"left"	0.643	1.789	585.076	583.93
590.793	"Auditory_Same"	1	"right"	0.933	1.789	592.582	591.726
593.217	"Auditory_Same"	1	"right"	0.975	1.788	595.005	594.192
595.858	"Auditory_Different"	1	"left"	0.687	1.789	597.647	596.545
598.399	"Auditory_Same"	1	"right"	0.904	1.789	600.188	599.303
600.789	"Auditory_Lure"	1	"left"	0.882	1.789	602.578	601.671
608.245	"Visual_Different"	1	"left"	0.741	1.789	610.034	608.986
610.82	"Visual_Lure"	1	"left"	0.746	1.788	612.608	611.566
613.21	"Visual_Different"	1	"left"	0.57	1.789	614.999	613.78
615.751	"Visual_Same"	1	"right"	0.986	1.789	617.54	616.737
618.342	"Visual_Same"	1	"right"	0.872	1.789	620.131	619.214
620.883	"Visual_Lure"	1	"left"	0.751	1.772	622.655	621.634
623.157	"Visual_Lure"	1	"left"	1.038	1.788	624.945	624.195
630.947	"Auditory_Same"	1	"right"	0.904	1.771	632.718	631.851
633.27	"Auditory_Same"	1	"right"	0.881	1.789	635.059	634.151
635.861	"Auditory_Lure"	1	"left"	0.79	1.789	637.65	636.651
638.302	"Auditory_Different"	1	"left"	1.026	1.789	640.091	639.328
640.692	"Auditory_Same"	1	"right"	0.984	1.789	642.481	641.676
648.432	"Visual_Same"	1	"right"	0.779	1.789	650.221	649.211
650.823	"Visual_Same"	1	"right"	0.665	1.788	652.611	651.488
653.364	"Visual_Different"	1	"left"	0.587	1.788	655.152	653.951
655.754	"Visual_Lure"	1	"left"	0.617	1.789	657.543	656.371
658.345	"Visual_Lure"	1	"left"	0.564	1.772	660.117	658.909
660.719	"Visual_Same"	1	"right"	0.715	1.789	662.508	661.434
668.442	"Auditory_Lure"	1	"left"	0.921	1.789	670.231	669.363
670.833	"Auditory_Same"	1	"right"	0.848	1.788	672.621	671.681
673.257	"Auditory_Lure"	1	"left"	0.961	1.788	675.045	674.218
675.697	"Auditory_Different"	1	"left"	0.894	1.789	677.486	676.591
678.339	"Auditory_Different"	1	"left"	0.628	1.788	680.127	678.967
680.729	"Auditory_Same"	1	"right"	0.867	1.789	682.518	681.596
683.153	"Auditory_Same"	1	"right"	0.829	1.789	684.942	683.982
690.843	"Visual_Same"	1	"right"	0.882	1.788	692.631	691.725
693.434	"Visual_Lure"	1	"left"	0.817	1.789	695.223	694.251
695.707	"Visual_Same"	1	"right"	0.818	1.789	697.496	696.525
698.349	"Visual_Different"	1	"left"	0.81	1.788	700.137	699.159
700.739	"Visual_Different"	1	"left"	0.501	1.789	702.528	701.24
703.28	"Visual_Lure"	1	"left"	0.686	1.789	705.069	703.966
710.836	"Auditory_Lure"	1	"left"	1.054	1.789	712.625	711.89
713.427	"Auditory_Different"	1	"left"	0.93	1.789	715.216	714.357
715.868	"Auditory_Lure"	1	"left"	0.889	1.788	717.656	716.757
718.392	"Auditory_Same"	1	"right"	0.939	1.789	720.181	719.331
720.732	"Auditory_Same"	1	"right"	0.891	1.789	722.521	721.623
723.323	"Auditory_Different"	1	"left"	1.06	1.789	725.112	724.383
