onset	duration	trial_type	accuracy	button	response_time	time_to_offset_alternative_onset	time_to_RT_alternative_onset_or_duration
10.735	1.789	Visual_Lure	1	left	0.435	12.524	11.17
13.276	1.789	Visual_Lure	1	left	0.423	15.065	13.699
15.867	1.789	Visual_Different	1	left	0.517	17.656	16.384
18.308	1.789	Visual_Same	1	right	0.927	20.097	19.235
20.899	1.789	Visual_Lure	1	left	0.823	22.688	21.722
28.338	1.789	Auditory_Lure	0	right	1.364	30.127	29.702
30.929	1.789	Auditory_Lure	1	left	1.285	32.718	32.214
33.269	1.789	Auditory_Same	1	right	1.23	35.058	34.499
35.71	1.789	Auditory_Lure	1	left	0.955	37.499	36.665
38.351	1.789	Auditory_Different	1	left	1.681	40.14	40.032
45.84	1.789	Visual_Lure	1	left	1.644	47.629	47.484
48.231	1.788	Visual_Different	1	left	1.637	50.019	49.868
50.922	1.789	Visual_Lure	0	right	1.216	52.711	52.138
53.363	1.788	Visual_Same	0	left	1.438	55.151	54.801
55.736	1.789	Visual_Same	1	right	1.231	57.525	56.967
58.277	1.789	Visual_Different	1	left	1.577	60.066	59.854
65.85	1.789	Auditory_Different	1	left	1.546	67.639	67.396
68.424	1.789	Auditory_Same	1	right	1.036	70.213	69.46
70.715	1.788	Auditory_Different	1	left	1.35	72.503	72.065
73.256	1.788	Auditory_Lure	1	left	1.48	75.044	74.736
75.847	1.788	Auditory_Lure	1	left	1.368	77.635	77.215
78.22	1.789	Auditory_Same	1	right	0.883	80.009	79.103
85.793	1.789	Visual_Same	1	right	0.826	87.582	86.619
88.384	1.789	Visual_Lure	1	left	0.849	90.173	89.233
90.724	1.789	Visual_Same	1	right	0.772	92.513	91.496
93.399	1.789	Visual_Different	1	left	0.622	95.188	94.021
95.789	1.789	Visual_Different	1	left	1.31	97.578	97.099
98.23	1.789	Visual_Lure	1	left	0.959	100.019	99.189
105.936	1.789	Auditory_Same	0	left	0.86	107.725	106.796
108.377	1.789	Auditory_Lure	0	right	0.97	110.166	109.347
110.717	1.789	Auditory_Same	1	right	0.904	112.506	111.621
113.308	1.789	Auditory_Different	1	left	1.172	115.097	114.48
115.849	1.772	Auditory_Different	1	left	1.083	117.621	116.932
118.374	1.788	Auditory_Lure	0	right	1.233	120.162	119.607
125.896	1.789	Visual_Lure	1	left	0.764	127.685	126.66
128.236	1.772	Visual_Different	1	left	1.349	130.008	129.585
130.911	1.789	Visual_Same	0	left	1.538	132.7	132.449
133.302	1.788	Visual_Different	1	left	1.004	135.09	134.306
135.742	1.789	Visual_Different	1	left	0.918	137.531	136.66
138.383	1.789	Visual_Same	1	right	1.192	140.172	139.575
140.824	1.772	Visual_Same	1	right	1.056	142.596	141.88
148.346	1.789	Auditory_Lure	0	right	1.402	150.135	149.748
150.787	1.772	Auditory_Lure	1	left	1.033	152.559	151.82
153.211	1.789	Auditory_Same	1	right	0.797	155	154.008
155.902	1.789	Auditory_Different	1	left	1.005	157.691	156.907
158.343	1.789	Auditory_Different	1	left	0.869	160.132	159.212
160.683	1.789	Auditory_Lure	1	left	1.25	162.472	161.933
168.239	1.789	Visual_Same	1	right	0.736	170.028	168.975
170.83	1.789	Visual_Different	1	left	0.523	172.619	171.353
173.371	1.789	Visual_Same	1	right	0.713	175.16	174.084
175.695	1.788	Visual_Lure	1	left	0.932	177.483	176.627
178.386	1.789	Visual_Lure	1	left	0.733	180.175	179.119
180.726	1.789	Visual_Different	1	left	0.882	182.515	181.608
183.318	1.788	Visual_Different	1	left	0.71	185.106	184.028
190.84	1.789	Auditory_Same	1	right	1.128	192.629	191.968
193.281	1.788	Auditory_Same	1	right	0.763	195.069	194.044
195.872	1.788	Auditory_Lure	1	left	0.694	197.66	196.566
198.245	1.789	Auditory_Different	1	left	0.854	200.034	199.099
200.786	1.789	Auditory_Same	1	right	0.985	202.575	201.771
208.443	1.788	Visual_Different	1	left	0.819	210.231	209.262
210.783	1.789	Visual_Same	1	right	0.8	212.572	211.583
213.307	1.789	Visual_Different	1	left	0.809	215.096	214.116
215.698	1.788	Visual_Lure	1	left	0.821	217.486	216.519
218.289	1.788	Visual_Lure	1	left	0.701	220.077	218.99
220.83	1.788	Visual_Same	1	right	0.715	222.618	221.545
228.235	1.789	Auditory_Different	1	left	0.969	230.024	229.204
230.926	1.789	Auditory_Same	1	right	0.882	232.715	231.808
233.317	1.789	Auditory_Lure	1	left	1.033	235.106	234.35
235.858	1.788	Auditory_Same	1	right	0.744	237.646	236.602
238.232	1.788	Auditory_Same	1	right	0.763	240.02	238.995
240.672	1.789	Auditory_Lure	1	left	1.036	242.461	241.708
243.364	1.788	Auditory_Lure	1	left	0.689	245.152	244.053
250.786	1.788	Visual_Different	1	left	0.607	252.574	251.393
253.427	1.789	Visual_Lure	1	left	0.707	255.216	254.134
255.717	1.789	Visual_Different	1	left	0.616	257.506	256.333
258.358	1.772	Visual_Same	1	right	0.858	260.13	259.216
260.782	1.789	Visual_Same	1	right	0.76	262.571	261.542
263.373	1.789	Visual_Lure	1	left	0.631	265.162	264.004
265.714	1.788	Visual_Lure	1	left	0.721	267.502	266.435
273.286	1.789	Auditory_Different	1	left	0.585	275.075	273.871
275.827	1.789	Auditory_Different	1	left	0.651	277.616	276.478
278.368	1.789	Auditory_Lure	1	left	0.895	280.157	279.263
280.909	1.789	Auditory_Same	1	right	0.993	282.698	281.902
283.182	1.789	Auditory_Same	1	right	0.655	284.971	283.837
285.874	1.789	Auditory_Different	1	left	1.067	287.663	286.941
293.246	1.772	Visual_Same	1	right	0.775	295.018	294.021
295.87	1.789	Visual_Same	1	right	0.585	297.659	296.455
298.211	1.788	Visual_Different	1	left	0.616	299.999	298.827
300.902	1.789	Visual_Lure	1	left	0.77	302.691	301.672
303.242	1.789	Visual_Lure	1	left	0.836	305.031	304.078
305.767	1.788	Visual_Same	1	right	1.076	307.555	306.843
313.239	1.789	Auditory_Lure	1	left	0.782	315.028	314.021
315.83	1.789	Auditory_Different	1	left	0.991	317.619	316.821
318.271	1.772	Auditory_Lure	1	left	0.987	320.043	319.258
320.845	1.789	Auditory_Same	1	right	0.788	322.634	321.633
323.286	1.788	Auditory_Same	1	right	0.699	325.074	323.985
325.726	1.789	Auditory_Different	0	NA	NA	327.515	NA
333.282	1.789	Visual_Different	1	left	0.652	335.071	333.934
335.723	1.788	Visual_Different	1	left	0.708	337.511	336.431
338.414	1.789	Visual_Lure	1	left	0.958	340.203	339.372
340.855	1.788	Visual_Different	1	left	0.647	342.643	341.502
343.279	1.788	Visual_Same	1	right	0.528	345.067	343.807
350.734	1.789	Auditory_Lure	1	left	0.76	352.523	351.494
353.375	1.789	Auditory_Different	1	left	0.667	355.164	354.042
355.916	1.789	Auditory_Same	1	right	0.641	357.705	356.557
358.24	1.789	Auditory_Different	1	left	0.655	360.029	358.895
360.781	1.789	Auditory_Different	1	left	0.822	362.57	361.603
363.322	1.788	Auditory_Same	1	right	1.023	365.11	364.345
365.662	1.789	Auditory_Same	1	right	0.998	367.451	366.66
373.235	1.788	Visual_Different	1	left	0.6	375.023	373.835
375.826	1.788	Visual_Same	1	right	0.584	377.614	376.41
378.367	1.788	Visual_Lure	1	left	0.7	380.155	379.067
380.74	1.789	Visual_Same	1	right	0.704	382.529	381.444
383.382	1.788	Visual_Same	1	right	0.605	385.17	383.987
385.672	1.789	Visual_Lure	1	left	0.792	387.461	386.464
388.363	1.789	Visual_Lure	1	left	1.095	390.152	389.458
395.936	1.789	Auditory_Same	1	right	0.838	397.725	396.774
398.376	1.789	Auditory_Same	1	right	0.688	400.165	399.064
400.717	1.788	Auditory_Different	1	left	1.011	402.505	401.728
403.241	1.789	Auditory_Lure	0	right	0.75	405.03	403.991
405.782	1.789	Auditory_Lure	1	left	0.889	407.571	406.671
408.373	1.789	Auditory_Same	1	right	0.87	410.162	409.243
415.829	1.788	Visual_Lure	1	left	0.678	417.617	416.507
418.269	1.789	Visual_Same	1	right	0.627	420.058	418.896
420.86	1.789	Visual_Lure	1	left	0.627	422.649	421.487
423.301	1.789	Visual_Different	1	left	0.775	425.09	424.076
425.892	1.789	Visual_Different	1	left	0.806	427.681	426.698
428.165	1.789	Visual_Same	1	right	0.689	429.954	428.854
430.807	1.788	Visual_Same	1	right	0.56	432.595	431.367
438.279	1.789	Auditory_Lure	1	left	1.091	440.068	439.37
440.92	1.789	Auditory_Lure	1	left	0.666	442.709	441.586
443.361	1.788	Auditory_Different	1	left	1.2	445.149	444.561
445.701	1.789	Auditory_Same	1	right	0.923	447.49	446.624
448.275	1.789	Auditory_Lure	1	left	0.797	450.064	449.072
455.781	1.789	Visual_Different	1	left	0.586	457.57	456.367
458.372	1.789	Visual_Different	1	left	0.522	460.161	458.894
460.713	1.788	Visual_Lure	1	left	0.924	462.501	461.637
463.254	1.772	Visual_Same	1	right	0.601	465.026	463.855
465.878	1.789	Visual_Same	1	right	0.584	467.667	466.462
468.269	1.788	Visual_Different	1	left	0.637	470.057	468.906
475.791	1.789	Auditory_Different	1	left	0.94	477.58	476.731
478.365	1.789	Auditory_Different	1	left	0.908	480.154	479.273
480.906	1.789	Auditory_Same	1	right	0.795	482.695	481.701
483.196	1.789	Auditory_Lure	1	left	0.993	484.985	484.189
485.788	1.788	Auditory_Different	1	left	0.701	487.576	486.489
493.277	1.788	Visual_Lure	1	left	0.684	495.065	493.961
495.868	1.788	Visual_Lure	1	left	0.843	497.656	496.711
498.409	1.788	Visual_Same	1	right	1.327	500.197	499.736
500.799	1.789	Visual_Lure	1	left	1.135	502.588	501.934
503.189	1.789	Visual_Different	1	left	0.87	504.978	504.059
510.879	1.789	Auditory_Different	1	left	0.876	512.668	511.755
513.27	1.788	Auditory_Different	1	left	0.972	515.058	514.242
515.811	1.788	Auditory_Lure	1	left	1.3	517.599	517.111
518.402	1.788	Auditory_Different	0	right	1.604	520.19	520.006
520.675	1.789	Auditory_Same	1	right	1.001	522.464	521.676
528.381	1.789	Visual_Same	1	right	0.678	530.17	529.059
530.772	1.789	Visual_Same	1	right	0.673	532.561	531.445
533.212	1.789	Visual_Lure	1	left	0.76	535.001	533.972
535.787	1.789	Visual_Different	1	left	0.845	537.576	536.632
538.378	1.789	Visual_Same	1	right	0.643	540.167	539.021
545.783	1.789	Auditory_Same	1	right	0.796	547.572	546.579
548.374	1.789	Auditory_Same	1	right	0.72	550.163	549.094
550.915	1.789	Auditory_Different	1	left	0.671	552.704	551.586
553.189	1.788	Auditory_Same	1	right	0.689	554.977	553.878
555.78	1.789	Auditory_Lure	1	left	1.28	557.569	557.06
563.336	1.788	Visual_Different	1	left	0.664	565.124	564
565.726	1.789	Visual_Different	1	left	0.519	567.515	566.245
568.25	1.789	Visual_Same	1	right	0.739	570.039	568.989
570.892	1.788	Visual_Lure	1	left	0.86	572.68	571.752
573.332	1.789	Visual_Different	1	left	0.781	575.121	574.113
580.938	1.789	Auditory_Different	1	left	0.767	582.727	581.705
583.362	1.789	Auditory_Lure	0	right	0.799	585.151	584.161
585.803	1.789	Auditory_Different	1	left	0.869	587.592	586.672
588.193	1.789	Auditory_Same	1	right	0.686	589.982	588.879
590.734	1.789	Auditory_Same	1	right	0.922	592.523	591.656
593.325	1.789	Auditory_Lure	1	left	0.844	595.114	594.169
595.649	1.789	Auditory_Lure	1	left	1.167	597.438	596.816
603.339	1.788	Visual_Same	1	right	0.775	605.127	604.114
605.712	1.789	Visual_Lure	1	left	0.818	607.501	606.53
608.354	1.788	Visual_Different	1	left	1.018	610.142	609.372
610.744	1.789	Visual_Lure	1	left	0.929	612.533	611.673
613.385	1.789	Visual_Lure	1	left	0.917	615.174	614.302
615.709	1.788	Visual_Different	1	left	0.7	617.497	616.409
618.3	1.789	Visual_Different	1	left	0.805	620.089	619.105
625.939	1.789	Auditory_Same	1	right	0.736	627.728	626.675
628.263	1.789	Auditory_Lure	1	left	0.845	630.052	629.108
630.804	1.789	Auditory_Different	1	left	1.3	632.593	632.104
633.194	1.789	Auditory_Lure	1	left	0.947	634.983	634.141
635.886	1.788	Auditory_Lure	1	left	1.104	637.674	636.99
638.31	1.788	Auditory_Different	1	left	0.713	640.098	639.023
640.75	1.789	Auditory_Different	1	left	0.771	642.539	641.521
648.223	1.788	Visual_Same	1	right	0.836	650.011	649.059
650.814	1.788	Visual_Same	1	right	0.592	652.602	651.406
653.405	1.788	Visual_Different	1	left	0.704	655.193	654.109
655.695	1.789	Visual_Same	1	right	0.619	657.484	656.314
658.336	1.789	Visual_Lure	1	left	0.718	660.125	659.054
665.775	1.789	Auditory_Lure	1	left	1.053	667.564	666.828
668.216	1.788	Auditory_Same	1	right	0.799	670.004	669.015
670.807	1.788	Auditory_Lure	1	left	0.723	672.595	671.53
673.247	1.789	Auditory_Different	1	left	0.861	675.036	674.108
675.872	1.788	Auditory_Different	1	left	0.845	677.66	676.717
678.312	1.789	Auditory_Same	1	right	0.782	680.101	679.094
680.653	1.788	Auditory_Same	1	right	0.718	682.441	681.371
688.426	1.789	Visual_Lure	1	left	0.923	690.215	689.349
690.816	1.789	Visual_Lure	1	left	0.713	692.605	691.529
693.257	1.789	Visual_Same	1	right	0.696	695.046	693.953
695.698	1.788	Visual_Different	1	left	0.766	697.486	696.464
698.372	1.789	Visual_Different	1	left	0.74	700.161	699.112
700.713	1.788	Visual_Lure	1	left	1.18	702.501	701.893
708.335	1.789	Auditory_Same	1	right	1.036	710.124	709.371
710.91	1.788	Auditory_Different	1	left	0.803	712.698	711.713
713.35	1.789	Auditory_Same	1	right	0.718	715.139	714.068
715.741	1.789	Auditory_Lure	1	left	0.951	717.53	716.692
718.282	1.788	Auditory_Lure	1	left	0.692	720.07	718.974
720.873	1.789	Auditory_Different	1	left	0.606	722.662	721.479
723.146	1.789	Auditory_Different	1	left	1.149	724.935	724.295
