"onset"	"trial_type"	"accuracy"	"button"	"response_time"	"duration"	"time_to_offset_alternative_onset"	"time_to_RT_alternative_onset_or_duration"
10.786	"Visual_Lure"	0	NA	NA	1.788	12.574	NA
13.226	"Visual_Different"	0	"right"	1.665	1.789	15.015	14.891
15.867	"Visual_Same"	0	NA	NA	1.789	17.656	NA
18.308	"Visual_Different"	0	NA	NA	1.789	20.097	NA
20.899	"Visual_Different"	0	NA	NA	1.789	22.688	NA
23.173	"Visual_Same"	0	"left"	0.819	1.788	24.961	23.992
25.814	"Visual_Same"	0	"left"	0.56	1.789	27.603	26.374
33.286	"Auditory_Lure"	0	"right"	1.368	1.789	35.075	34.654
35.928	"Auditory_Different"	0	NA	NA	1.788	37.716	NA
38.218	"Auditory_Lure"	1	"left"	1.365	1.789	40.007	39.583
40.809	"Auditory_Same"	1	"right"	1.626	1.789	42.598	42.435
43.35	"Auditory_Same"	0	NA	NA	1.789	45.139	NA
45.673	"Auditory_Different"	0	NA	NA	1.789	47.462	NA
53.346	"Visual_Lure"	0	NA	NA	1.789	55.135	NA
55.938	"Visual_Different"	0	"right"	1.372	1.788	57.726	57.31
58.261	"Visual_Lure"	0	NA	NA	1.789	60.05	NA
60.802	"Visual_Same"	1	"right"	1.182	1.789	62.591	61.984
63.243	"Visual_Same"	1	"right"	0.922	1.788	65.031	64.165
65.683	"Visual_Different"	0	NA	NA	1.789	67.472	NA
73.34	"Auditory_Different"	0	NA	NA	1.788	75.128	NA
75.931	"Auditory_Same"	1	"right"	1.267	1.789	77.72	77.198
78.271	"Auditory_Different"	0	NA	NA	1.789	80.06	NA
80.862	"Auditory_Lure"	1	"left"	0.034	1.789	82.651	80.896
83.186	"Auditory_Lure"	0	NA	NA	1.789	84.975	NA
85.877	"Auditory_Same"	1	"right"	1.24	1.789	87.666	87.117
93.4	"Visual_Lure"	0	"right"	1.623	1.789	95.189	95.023
95.924	"Visual_Lure"	1	"left"	1.301	1.789	97.713	97.225
98.315	"Visual_Same"	1	"right"	0.951	1.788	100.103	99.266
100.705	"Visual_Different"	0	NA	NA	1.789	102.494	NA
103.396	"Visual_Different"	0	NA	NA	1.789	105.185	NA
105.837	"Visual_Lure"	1	"left"	1.231	1.789	107.626	107.068
113.393	"Auditory_Same"	0	NA	NA	1.789	115.182	NA
115.834	"Auditory_Lure"	1	"left"	1.431	1.788	117.622	117.265
118.274	"Auditory_Same"	0	NA	NA	1.789	120.063	NA
120.698	"Auditory_Different"	0	NA	NA	1.789	122.487	NA
123.34	"Auditory_Different"	1	"left"	1.596	1.788	125.128	124.936
125.73	"Auditory_Lure"	1	"left"	1.474	1.789	127.519	127.204
133.286	"Visual_Lure"	1	"left"	1.128	1.789	135.075	134.414
135.927	"Visual_Lure"	0	NA	NA	1.789	137.716	NA
138.268	"Visual_Same"	1	"right"	1.742	1.788	140.056	140.01
140.708	"Visual_Lure"	1	"left"	1.129	1.789	142.497	141.837
143.35	"Visual_Different"	1	"left"	1.167	1.771	145.121	144.517
150.839	"Auditory_Same"	1	"right"	1.243	1.788	152.627	152.082
153.43	"Auditory_Lure"	1	"left"	1.453	1.788	155.218	154.883
155.77	"Auditory_Different"	0	NA	NA	1.789	157.559	NA
158.361	"Auditory_Lure"	1	"left"	1.372	1.789	160.15	159.733
160.685	"Auditory_Lure"	1	"left"	1.454	1.788	162.473	162.139
163.376	"Auditory_Different"	0	NA	NA	1.789	165.165	NA
165.767	"Auditory_Different"	1	"left"	1.35	1.788	167.555	167.117
173.339	"Visual_Same"	1	"right"	1.413	1.789	175.128	174.752
175.93	"Visual_Lure"	0	NA	NA	1.789	177.719	NA
178.221	"Visual_Different"	1	"left"	1.665	1.788	180.009	179.886
180.812	"Visual_Lure"	0	"right"	1.647	1.788	182.6	182.459
183.236	"Visual_Lure"	1	"left"	1.217	1.788	185.024	184.453
185.827	"Visual_Different"	0	NA	NA	1.788	187.615	NA
188.217	"Visual_Different"	1	"left"	1.149	1.789	190.006	189.366
195.89	"Auditory_Same"	1	"right"	1.47	1.789	197.679	197.36
198.231	"Auditory_Same"	1	"right"	1.559	1.788	200.019	199.79
200.822	"Auditory_Lure"	1	"left"	1.466	1.788	202.61	202.288
203.413	"Auditory_Different"	1	"left"	1.453	1.772	205.185	204.866
205.736	"Auditory_Same"	1	"right"	1.337	1.789	207.525	207.073
213.443	"Visual_Same"	1	"right"	1.172	1.789	215.232	214.615
215.833	"Visual_Same"	1	"right"	1.444	1.789	217.622	217.277
218.374	"Visual_Different"	0	NA	NA	1.789	220.163	NA
220.698	"Visual_Same"	1	"right"	1.091	1.789	222.487	221.789
223.389	"Visual_Lure"	1	"left"	1.288	1.789	225.178	224.677
230.945	"Auditory_Lure"	1	"left"	1.494	1.789	232.734	232.439
233.336	"Auditory_Different"	1	"left"	1.141	1.788	235.124	234.477
235.86	"Auditory_Same"	1	"right"	1.134	1.789	237.649	236.994
238.2	"Auditory_Different"	1	"left"	1.233	1.789	239.989	239.433
240.741	"Auditory_Different"	1	"left"	1.531	1.789	242.53	242.272
243.332	"Auditory_Same"	1	"right"	1.539	1.789	245.121	244.871
245.723	"Auditory_Same"	1	"right"	1.602	1.772	247.495	247.325
253.346	"Visual_Different"	1	"left"	1.669	1.788	255.134	255.015
255.887	"Visual_Same"	0	"left"	1.347	1.788	257.675	257.234
258.21	"Visual_Lure"	1	"left"	0.846	1.789	259.999	259.056
260.751	"Visual_Same"	0	NA	NA	1.789	262.54	NA
263.192	"Visual_Same"	1	"right"	1.368	1.789	264.981	264.56
265.783	"Visual_Lure"	1	"left"	1.429	1.789	267.572	267.212
268.324	"Visual_Lure"	1	"left"	1.505	1.772	270.096	269.829
275.846	"Auditory_Different"	0	NA	NA	1.789	277.635	NA
278.438	"Auditory_Different"	1	"left"	1.75	1.772	280.21	280.188
280.711	"Auditory_Same"	1	"right"	1.217	1.789	282.5	281.928
283.402	"Auditory_Lure"	0	NA	NA	1.789	285.191	NA
285.743	"Auditory_Different"	1	"left"	1.152	1.788	287.531	286.895
293.299	"Visual_Same"	0	NA	NA	1.772	295.071	NA
295.923	"Visual_Same"	1	"right"	1.484	1.789	297.712	297.407
298.364	"Visual_Different"	0	NA	NA	1.789	300.153	NA
300.704	"Visual_Lure"	0	NA	NA	1.789	302.493	NA
303.245	"Visual_Lure"	1	"left"	1.246	1.789	305.034	304.491
305.87	"Visual_Same"	1	"right"	1.32	1.788	307.658	307.19
313.392	"Auditory_Lure"	1	"left"	1.283	1.789	315.181	314.675
315.733	"Auditory_Same"	1	"right"	1.064	1.788	317.521	316.797
318.307	"Auditory_Lure"	1	"left"	1.316	1.789	320.096	319.623
320.898	"Auditory_Different"	0	NA	NA	1.789	322.687	NA
323.238	"Auditory_Different"	1	"left"	0.325	1.789	325.027	323.563
325.83	"Auditory_Same"	1	"right"	0.988	1.788	327.618	326.818
328.17	"Auditory_Same"	1	"right"	1.036	1.789	329.959	329.206
335.843	"Visual_Lure"	1	"left"	1.287	1.789	337.632	337.13
338.384	"Visual_Same"	1	"right"	1.325	1.789	340.173	339.709
340.707	"Visual_Lure"	1	"left"	1.149	1.789	342.496	341.856
343.399	"Visual_Different"	0	NA	NA	1.789	345.188	NA
345.789	"Visual_Different"	1	"left"	1.552	1.789	347.578	347.341
348.23	"Visual_Same"	1	"right"	1.124	1.789	350.019	349.354
350.771	"Visual_Same"	1	"right"	0.897	1.789	352.56	351.668
358.344	"Auditory_Lure"	1	"left"	1.351	1.788	360.132	359.695
360.885	"Auditory_Lure"	1	"left"	1.233	1.788	362.673	362.118
363.409	"Auditory_Same"	1	"right"	1.311	1.789	365.198	364.72
365.699	"Auditory_Lure"	1	"left"	0.865	1.789	367.488	366.564
368.29	"Auditory_Different"	1	"left"	1.306	1.789	370.079	369.596
375.746	"Visual_Different"	1	"left"	1.507	1.788	377.534	377.253
378.27	"Visual_Different"	1	"left"	1.121	1.789	380.059	379.391
380.911	"Visual_Lure"	1	"left"	1.698	1.789	382.7	382.609
383.352	"Visual_Same"	1	"right"	1.114	1.789	385.141	384.466
385.793	"Visual_Same"	1	"right"	0.747	1.788	387.581	386.54
388.333	"Visual_Different"	1	"left"	1.474	1.789	390.122	389.807
395.789	"Auditory_Different"	0	NA	NA	1.789	397.578	NA
398.23	"Auditory_Different"	0	NA	NA	1.788	400.018	NA
400.771	"Auditory_Lure"	1	"left"	1.37	1.772	402.543	402.141
403.295	"Auditory_Different"	1	"left"	1.383	1.789	405.084	404.678
405.836	"Auditory_Same"	1	"right"	1.471	1.789	407.625	407.307
413.442	"Visual_Lure"	1	"left"	1.033	1.789	415.231	414.475
415.732	"Visual_Lure"	1	"left"	0.912	1.789	417.521	416.644
418.256	"Visual_Different"	0	NA	NA	1.789	420.045	NA
420.848	"Visual_Same"	1	"right"	0.97	1.788	422.636	421.818
423.288	"Visual_Lure"	1	"left"	1.187	1.789	425.077	424.475
430.944	"Auditory_Different"	1	"left"	1.431	1.789	432.733	432.375
433.368	"Auditory_Same"	1	"right"	1.292	1.789	435.157	434.66
435.809	"Auditory_Lure"	1	"left"	1.319	1.789	437.598	437.128
438.25	"Auditory_Same"	1	"right"	1.257	1.788	440.038	439.507
440.891	"Auditory_Same"	1	"right"	1.159	1.789	442.68	442.05
443.181	"Auditory_Lure"	1	"left"	1.407	1.789	444.97	444.588
445.755	"Auditory_Lure"	1	"left"	1.228	1.789	447.544	446.983
453.245	"Visual_Different"	1	"left"	1.091	1.788	455.033	454.336
455.919	"Visual_Different"	0	"right"	1.325	1.789	457.708	457.244
458.26	"Visual_Same"	1	"right"	1.244	1.788	460.048	459.504
460.851	"Visual_Lure"	0	NA	NA	1.788	462.639	NA
463.191	"Visual_Different"	1	"left"	1.25	1.789	464.98	464.441
470.73	"Auditory_Different"	0	NA	NA	1.789	472.519	NA
473.271	"Auditory_Different"	1	"left"	0.175	1.789	475.06	473.446
475.862	"Auditory_Lure"	1	"left"	1.209	1.789	477.651	477.071
478.403	"Auditory_Same"	1	"right"	1.08	1.789	480.192	479.483
480.844	"Auditory_Same"	1	"right"	1.038	1.789	482.633	481.882
483.368	"Auditory_Different"	1	"left"	1.337	1.789	485.157	484.705
490.941	"Visual_Different"	1	"left"	1.298	1.788	492.729	492.239
493.281	"Visual_Same"	1	"right"	1.171	1.789	495.07	494.452
495.805	"Visual_Different"	0	NA	NA	1.789	497.594	NA
498.396	"Visual_Lure"	1	"left"	1.333	1.789	500.185	499.729
500.687	"Visual_Lure"	1	"left"	1.108	1.788	502.475	501.795
503.228	"Visual_Same"	1	"right"	1.091	1.788	505.016	504.319
510.733	"Auditory_Lure"	1	"left"	1.336	1.789	512.522	512.069
513.325	"Auditory_Lure"	1	"left"	1.572	1.788	515.113	514.897
515.765	"Auditory_Different"	0	NA	NA	1.789	517.554	NA
518.306	"Auditory_Same"	1	"right"	1.115	1.789	520.095	519.421
520.88	"Auditory_Lure"	1	"left"	1.581	1.789	522.669	522.461
528.386	"Visual_Different"	0	"right"	1.331	1.789	530.175	529.717
530.827	"Visual_Different"	0	NA	NA	1.789	532.616	NA
533.268	"Visual_Lure"	1	"left"	1.131	1.788	535.056	534.399
535.909	"Visual_Different"	1	"left"	1.538	1.772	537.681	537.447
538.182	"Visual_Same"	1	"right"	1.054	1.789	539.971	539.236
545.738	"Auditory_Same"	1	"right"	1.12	1.789	547.527	546.858
548.279	"Auditory_Same"	1	"right"	1.221	1.789	550.068	549.5
550.854	"Auditory_Different"	1	"left"	1.658	1.788	552.642	552.512
553.294	"Auditory_Lure"	0	NA	NA	1.789	555.083	NA
555.885	"Auditory_Lure"	1	"left"	1.069	1.789	557.674	556.954
558.226	"Auditory_Same"	1	"right"	0.903	1.788	560.014	559.129
565.832	"Visual_Same"	1	"right"	0.856	1.788	567.62	566.688
568.373	"Visual_Different"	0	NA	NA	1.788	570.161	NA
570.713	"Visual_Same"	1	"right"	0.896	1.789	572.502	571.609
573.404	"Visual_Lure"	1	"left"	1.235	1.789	575.193	574.639
575.728	"Visual_Lure"	1	"left"	1.423	1.789	577.517	577.151
578.269	"Visual_Different"	0	NA	NA	1.789	580.058	NA
580.81	"Visual_Different"	1	"left"	1.324	1.789	582.599	582.134
588.383	"Auditory_Lure"	0	"right"	1.395	1.788	590.171	589.778
590.723	"Auditory_Lure"	1	"left"	1.066	1.789	592.512	591.789
593.314	"Auditory_Same"	1	"right"	1.397	1.789	595.103	594.711
595.855	"Auditory_Different"	1	"left"	1.422	1.789	597.644	597.277
598.379	"Auditory_Different"	1	"left"	1.077	1.789	600.168	599.456
600.669	"Auditory_Lure"	1	"left"	1.489	1.789	602.458	602.158
608.242	"Visual_Same"	1	"right"	1.418	1.789	610.031	609.66
610.766	"Visual_Lure"	1	"left"	1.25	1.789	612.555	612.016
613.357	"Visual_Same"	1	"right"	1.162	1.789	615.146	614.519
615.798	"Visual_Different"	0	NA	NA	1.789	617.587	NA
618.389	"Visual_Different"	1	"left"	1.184	1.789	620.178	619.573
620.679	"Visual_Lure"	1	"left"	1.105	1.772	622.451	621.784
628.286	"Auditory_Different"	1	"left"	1.196	1.788	630.074	629.482
630.826	"Auditory_Lure"	0	NA	NA	1.789	632.615	NA
633.367	"Auditory_Different"	1	"left"	1.664	1.789	635.156	635.031
635.741	"Auditory_Same"	1	"right"	1.505	1.789	637.53	637.246
638.182	"Auditory_Same"	1	"right"	1.124	1.788	639.97	639.306
640.873	"Auditory_Lure"	1	"left"	1.39	1.789	642.662	642.263
643.314	"Auditory_Lure"	1	"left"	1.166	1.789	645.103	644.48
650.786	"Visual_Different"	1	"left"	1.38	1.789	652.575	652.166
653.377	"Visual_Lure"	1	"left"	1.089	1.789	655.166	654.466
655.818	"Visual_Different"	1	"left"	1.066	1.789	657.607	656.884
658.392	"Visual_Same"	1	"right"	1.266	1.789	660.181	659.658
660.733	"Visual_Same"	1	"right"	1.255	1.788	662.521	661.988
663.173	"Visual_Lure"	1	"left"	1.239	1.789	664.962	664.412
665.764	"Visual_Lure"	1	"left"	1.235	1.789	667.553	666.999
673.287	"Auditory_Same"	1	"right"	1.118	1.789	675.076	674.405
675.928	"Auditory_Different"	1	"left"	1.382	1.789	677.717	677.31
678.202	"Auditory_Same"	1	"right"	1.302	1.788	679.99	679.504
680.793	"Auditory_Lure"	1	"left"	1.16	1.788	682.581	681.953
683.384	"Auditory_Lure"	1	"left"	0.948	1.789	685.173	684.332
685.824	"Auditory_Different"	1	"left"	0.935	1.789	687.613	686.759
688.265	"Auditory_Different"	1	"left"	1.313	1.789	690.054	689.578
695.888	"Visual_Same"	1	"right"	0.874	1.789	697.677	696.762
698.429	"Visual_Same"	1	"right"	0.844	1.789	700.218	699.273
700.753	"Visual_Lure"	1	"left"	1.071	1.788	702.541	701.824
703.394	"Visual_Different"	1	"left"	1.287	1.788	705.182	704.681
705.684	"Visual_Same"	1	"right"	1.19	1.789	707.473	706.874
713.24	"Auditory_Same"	1	"right"	1.332	1.789	715.029	714.572
715.764	"Auditory_Same"	1	"right"	1.306	1.789	717.553	717.07
718.355	"Auditory_Different"	0	NA	NA	1.789	720.144	NA
720.796	"Auditory_Same"	1	"right"	1.187	1.789	722.585	721.983
723.387	"Auditory_Lure"	1	"left"	1.222	1.789	725.176	724.609
