onset	duration	trial_type	accuracy	button	response_time	time_to_offset_alternative_onset	time_to_RT_alternative_onset_or_duration
10.786	1.788	Visual_Lure	0	NA	NA	12.574	NA
13.226	1.789	Visual_Different	0	right	1.665	15.015	14.891
15.867	1.789	Visual_Same	0	NA	NA	17.656	NA
18.308	1.789	Visual_Different	0	NA	NA	20.097	NA
20.899	1.789	Visual_Different	0	NA	NA	22.688	NA
23.173	1.788	Visual_Same	0	left	0.819	24.961	23.992
25.814	1.789	Visual_Same	0	left	0.56	27.603	26.374
33.286	1.789	Auditory_Lure	0	right	1.368	35.075	34.654
35.928	1.788	Auditory_Different	0	NA	NA	37.716	NA
38.218	1.789	Auditory_Lure	1	left	1.365	40.007	39.583
40.809	1.789	Auditory_Same	1	right	1.626	42.598	42.435
43.35	1.789	Auditory_Same	0	NA	NA	45.139	NA
45.673	1.789	Auditory_Different	0	NA	NA	47.462	NA
53.346	1.789	Visual_Lure	0	NA	NA	55.135	NA
55.938	1.788	Visual_Different	0	right	1.372	57.726	57.31
58.261	1.789	Visual_Lure	0	NA	NA	60.05	NA
60.802	1.789	Visual_Same	1	right	1.182	62.591	61.984
63.243	1.788	Visual_Same	1	right	0.922	65.031	64.165
65.683	1.789	Visual_Different	0	NA	NA	67.472	NA
73.34	1.788	Auditory_Different	0	NA	NA	75.128	NA
75.931	1.789	Auditory_Same	1	right	1.267	77.72	77.198
78.271	1.789	Auditory_Different	0	NA	NA	80.06	NA
80.862	1.789	Auditory_Lure	1	left	0.034	82.651	80.896
83.186	1.789	Auditory_Lure	0	NA	NA	84.975	NA
85.877	1.789	Auditory_Same	1	right	1.24	87.666	87.117
93.4	1.789	Visual_Lure	0	right	1.623	95.189	95.023
95.924	1.789	Visual_Lure	1	left	1.301	97.713	97.225
98.315	1.788	Visual_Same	1	right	0.951	100.103	99.266
100.705	1.789	Visual_Different	0	NA	NA	102.494	NA
103.396	1.789	Visual_Different	0	NA	NA	105.185	NA
105.837	1.789	Visual_Lure	1	left	1.231	107.626	107.068
113.393	1.789	Auditory_Same	0	NA	NA	115.182	NA
115.834	1.788	Auditory_Lure	1	left	1.431	117.622	117.265
118.274	1.789	Auditory_Same	0	NA	NA	120.063	NA
120.698	1.789	Auditory_Different	0	NA	NA	122.487	NA
123.34	1.788	Auditory_Different	1	left	1.596	125.128	124.936
125.73	1.789	Auditory_Lure	1	left	1.474	127.519	127.204
133.286	1.789	Visual_Lure	1	left	1.128	135.075	134.414
135.927	1.789	Visual_Lure	0	NA	NA	137.716	NA
138.268	1.788	Visual_Same	1	right	1.742	140.056	140.01
140.708	1.789	Visual_Lure	1	left	1.129	142.497	141.837
143.35	1.771	Visual_Different	1	left	1.167	145.121	144.517
150.839	1.788	Auditory_Same	1	right	1.243	152.627	152.082
153.43	1.788	Auditory_Lure	1	left	1.453	155.218	154.883
155.77	1.789	Auditory_Different	0	NA	NA	157.559	NA
158.361	1.789	Auditory_Lure	1	left	1.372	160.15	159.733
160.685	1.788	Auditory_Lure	1	left	1.454	162.473	162.139
163.376	1.789	Auditory_Different	0	NA	NA	165.165	NA
165.767	1.788	Auditory_Different	1	left	1.35	167.555	167.117
173.339	1.789	Visual_Same	1	right	1.413	175.128	174.752
175.93	1.789	Visual_Lure	0	NA	NA	177.719	NA
178.221	1.788	Visual_Different	1	left	1.665	180.009	179.886
180.812	1.788	Visual_Lure	0	right	1.647	182.6	182.459
183.236	1.788	Visual_Lure	1	left	1.217	185.024	184.453
185.827	1.788	Visual_Different	0	NA	NA	187.615	NA
188.217	1.789	Visual_Different	1	left	1.149	190.006	189.366
195.89	1.789	Auditory_Same	1	right	1.47	197.679	197.36
198.231	1.788	Auditory_Same	1	right	1.559	200.019	199.79
200.822	1.788	Auditory_Lure	1	left	1.466	202.61	202.288
203.413	1.772	Auditory_Different	1	left	1.453	205.185	204.866
205.736	1.789	Auditory_Same	1	right	1.337	207.525	207.073
213.443	1.789	Visual_Same	1	right	1.172	215.232	214.615
215.833	1.789	Visual_Same	1	right	1.444	217.622	217.277
218.374	1.789	Visual_Different	0	NA	NA	220.163	NA
220.698	1.789	Visual_Same	1	right	1.091	222.487	221.789
223.389	1.789	Visual_Lure	1	left	1.288	225.178	224.677
230.945	1.789	Auditory_Lure	1	left	1.494	232.734	232.439
233.336	1.788	Auditory_Different	1	left	1.141	235.124	234.477
235.86	1.789	Auditory_Same	1	right	1.134	237.649	236.994
238.2	1.789	Auditory_Different	1	left	1.233	239.989	239.433
240.741	1.789	Auditory_Different	1	left	1.531	242.53	242.272
243.332	1.789	Auditory_Same	1	right	1.539	245.121	244.871
245.723	1.772	Auditory_Same	1	right	1.602	247.495	247.325
253.346	1.788	Visual_Different	1	left	1.669	255.134	255.015
255.887	1.788	Visual_Same	0	left	1.347	257.675	257.234
258.21	1.789	Visual_Lure	1	left	0.846	259.999	259.056
260.751	1.789	Visual_Same	0	NA	NA	262.54	NA
263.192	1.789	Visual_Same	1	right	1.368	264.981	264.56
265.783	1.789	Visual_Lure	1	left	1.429	267.572	267.212
268.324	1.772	Visual_Lure	1	left	1.505	270.096	269.829
275.846	1.789	Auditory_Different	0	NA	NA	277.635	NA
278.438	1.772	Auditory_Different	1	left	1.75	280.21	280.188
280.711	1.789	Auditory_Same	1	right	1.217	282.5	281.928
283.402	1.789	Auditory_Lure	0	NA	NA	285.191	NA
285.743	1.788	Auditory_Different	1	left	1.152	287.531	286.895
293.299	1.772	Visual_Same	0	NA	NA	295.071	NA
295.923	1.789	Visual_Same	1	right	1.484	297.712	297.407
298.364	1.789	Visual_Different	0	NA	NA	300.153	NA
300.704	1.789	Visual_Lure	0	NA	NA	302.493	NA
303.245	1.789	Visual_Lure	1	left	1.246	305.034	304.491
305.87	1.788	Visual_Same	1	right	1.32	307.658	307.19
313.392	1.789	Auditory_Lure	1	left	1.283	315.181	314.675
315.733	1.788	Auditory_Same	1	right	1.064	317.521	316.797
318.307	1.789	Auditory_Lure	1	left	1.316	320.096	319.623
320.898	1.789	Auditory_Different	0	NA	NA	322.687	NA
323.238	1.789	Auditory_Different	1	left	0.325	325.027	323.563
325.83	1.788	Auditory_Same	1	right	0.988	327.618	326.818
328.17	1.789	Auditory_Same	1	right	1.036	329.959	329.206
335.843	1.789	Visual_Lure	1	left	1.287	337.632	337.13
338.384	1.789	Visual_Same	1	right	1.325	340.173	339.709
340.707	1.789	Visual_Lure	1	left	1.149	342.496	341.856
343.399	1.789	Visual_Different	0	NA	NA	345.188	NA
345.789	1.789	Visual_Different	1	left	1.552	347.578	347.341
348.23	1.789	Visual_Same	1	right	1.124	350.019	349.354
350.771	1.789	Visual_Same	1	right	0.897	352.56	351.668
358.344	1.788	Auditory_Lure	1	left	1.351	360.132	359.695
360.885	1.788	Auditory_Lure	1	left	1.233	362.673	362.118
363.409	1.789	Auditory_Same	1	right	1.311	365.198	364.72
365.699	1.789	Auditory_Lure	1	left	0.865	367.488	366.564
368.29	1.789	Auditory_Different	1	left	1.306	370.079	369.596
375.746	1.788	Visual_Different	1	left	1.507	377.534	377.253
378.27	1.789	Visual_Different	1	left	1.121	380.059	379.391
380.911	1.789	Visual_Lure	1	left	1.698	382.7	382.609
383.352	1.789	Visual_Same	1	right	1.114	385.141	384.466
385.793	1.788	Visual_Same	1	right	0.747	387.581	386.54
388.333	1.789	Visual_Different	1	left	1.474	390.122	389.807
395.789	1.789	Auditory_Different	0	NA	NA	397.578	NA
398.23	1.788	Auditory_Different	0	NA	NA	400.018	NA
400.771	1.772	Auditory_Lure	1	left	1.37	402.543	402.141
403.295	1.789	Auditory_Different	1	left	1.383	405.084	404.678
405.836	1.789	Auditory_Same	1	right	1.471	407.625	407.307
413.442	1.789	Visual_Lure	1	left	1.033	415.231	414.475
415.732	1.789	Visual_Lure	1	left	0.912	417.521	416.644
418.256	1.789	Visual_Different	0	NA	NA	420.045	NA
420.848	1.788	Visual_Same	1	right	0.97	422.636	421.818
423.288	1.789	Visual_Lure	1	left	1.187	425.077	424.475
430.944	1.789	Auditory_Different	1	left	1.431	432.733	432.375
433.368	1.789	Auditory_Same	1	right	1.292	435.157	434.66
435.809	1.789	Auditory_Lure	1	left	1.319	437.598	437.128
438.25	1.788	Auditory_Same	1	right	1.257	440.038	439.507
440.891	1.789	Auditory_Same	1	right	1.159	442.68	442.05
443.181	1.789	Auditory_Lure	1	left	1.407	444.97	444.588
445.755	1.789	Auditory_Lure	1	left	1.228	447.544	446.983
453.245	1.788	Visual_Different	1	left	1.091	455.033	454.336
455.919	1.789	Visual_Different	0	right	1.325	457.708	457.244
458.26	1.788	Visual_Same	1	right	1.244	460.048	459.504
460.851	1.788	Visual_Lure	0	NA	NA	462.639	NA
463.191	1.789	Visual_Different	1	left	1.25	464.98	464.441
470.73	1.789	Auditory_Different	0	NA	NA	472.519	NA
473.271	1.789	Auditory_Different	1	left	0.175	475.06	473.446
475.862	1.789	Auditory_Lure	1	left	1.209	477.651	477.071
478.403	1.789	Auditory_Same	1	right	1.08	480.192	479.483
480.844	1.789	Auditory_Same	1	right	1.038	482.633	481.882
483.368	1.789	Auditory_Different	1	left	1.337	485.157	484.705
490.941	1.788	Visual_Different	1	left	1.298	492.729	492.239
493.281	1.789	Visual_Same	1	right	1.171	495.07	494.452
495.805	1.789	Visual_Different	0	NA	NA	497.594	NA
498.396	1.789	Visual_Lure	1	left	1.333	500.185	499.729
500.687	1.788	Visual_Lure	1	left	1.108	502.475	501.795
503.228	1.788	Visual_Same	1	right	1.091	505.016	504.319
510.733	1.789	Auditory_Lure	1	left	1.336	512.522	512.069
513.325	1.788	Auditory_Lure	1	left	1.572	515.113	514.897
515.765	1.789	Auditory_Different	0	NA	NA	517.554	NA
518.306	1.789	Auditory_Same	1	right	1.115	520.095	519.421
520.88	1.789	Auditory_Lure	1	left	1.581	522.669	522.461
528.386	1.789	Visual_Different	0	right	1.331	530.175	529.717
530.827	1.789	Visual_Different	0	NA	NA	532.616	NA
533.268	1.788	Visual_Lure	1	left	1.131	535.056	534.399
535.909	1.772	Visual_Different	1	left	1.538	537.681	537.447
538.182	1.789	Visual_Same	1	right	1.054	539.971	539.236
545.738	1.789	Auditory_Same	1	right	1.12	547.527	546.858
548.279	1.789	Auditory_Same	1	right	1.221	550.068	549.5
550.854	1.788	Auditory_Different	1	left	1.658	552.642	552.512
553.294	1.789	Auditory_Lure	0	NA	NA	555.083	NA
555.885	1.789	Auditory_Lure	1	left	1.069	557.674	556.954
558.226	1.788	Auditory_Same	1	right	0.903	560.014	559.129
565.832	1.788	Visual_Same	1	right	0.856	567.62	566.688
568.373	1.788	Visual_Different	0	NA	NA	570.161	NA
570.713	1.789	Visual_Same	1	right	0.896	572.502	571.609
573.404	1.789	Visual_Lure	1	left	1.235	575.193	574.639
575.728	1.789	Visual_Lure	1	left	1.423	577.517	577.151
578.269	1.789	Visual_Different	0	NA	NA	580.058	NA
580.81	1.789	Visual_Different	1	left	1.324	582.599	582.134
588.383	1.788	Auditory_Lure	0	right	1.395	590.171	589.778
590.723	1.789	Auditory_Lure	1	left	1.066	592.512	591.789
593.314	1.789	Auditory_Same	1	right	1.397	595.103	594.711
595.855	1.789	Auditory_Different	1	left	1.422	597.644	597.277
598.379	1.789	Auditory_Different	1	left	1.077	600.168	599.456
600.669	1.789	Auditory_Lure	1	left	1.489	602.458	602.158
608.242	1.789	Visual_Same	1	right	1.418	610.031	609.66
610.766	1.789	Visual_Lure	1	left	1.25	612.555	612.016
613.357	1.789	Visual_Same	1	right	1.162	615.146	614.519
615.798	1.789	Visual_Different	0	NA	NA	617.587	NA
618.389	1.789	Visual_Different	1	left	1.184	620.178	619.573
620.679	1.772	Visual_Lure	1	left	1.105	622.451	621.784
628.286	1.788	Auditory_Different	1	left	1.196	630.074	629.482
630.826	1.789	Auditory_Lure	0	NA	NA	632.615	NA
633.367	1.789	Auditory_Different	1	left	1.664	635.156	635.031
635.741	1.789	Auditory_Same	1	right	1.505	637.53	637.246
638.182	1.788	Auditory_Same	1	right	1.124	639.97	639.306
640.873	1.789	Auditory_Lure	1	left	1.39	642.662	642.263
643.314	1.789	Auditory_Lure	1	left	1.166	645.103	644.48
650.786	1.789	Visual_Different	1	left	1.38	652.575	652.166
653.377	1.789	Visual_Lure	1	left	1.089	655.166	654.466
655.818	1.789	Visual_Different	1	left	1.066	657.607	656.884
658.392	1.789	Visual_Same	1	right	1.266	660.181	659.658
660.733	1.788	Visual_Same	1	right	1.255	662.521	661.988
663.173	1.789	Visual_Lure	1	left	1.239	664.962	664.412
665.764	1.789	Visual_Lure	1	left	1.235	667.553	666.999
673.287	1.789	Auditory_Same	1	right	1.118	675.076	674.405
675.928	1.789	Auditory_Different	1	left	1.382	677.717	677.31
678.202	1.788	Auditory_Same	1	right	1.302	679.99	679.504
680.793	1.788	Auditory_Lure	1	left	1.16	682.581	681.953
683.384	1.789	Auditory_Lure	1	left	0.948	685.173	684.332
685.824	1.789	Auditory_Different	1	left	0.935	687.613	686.759
688.265	1.789	Auditory_Different	1	left	1.313	690.054	689.578
695.888	1.789	Visual_Same	1	right	0.874	697.677	696.762
698.429	1.789	Visual_Same	1	right	0.844	700.218	699.273
700.753	1.788	Visual_Lure	1	left	1.071	702.541	701.824
703.394	1.788	Visual_Different	1	left	1.287	705.182	704.681
705.684	1.789	Visual_Same	1	right	1.19	707.473	706.874
713.24	1.789	Auditory_Same	1	right	1.332	715.029	714.572
715.764	1.789	Auditory_Same	1	right	1.306	717.553	717.07
718.355	1.789	Auditory_Different	0	NA	NA	720.144	NA
720.796	1.789	Auditory_Same	1	right	1.187	722.585	721.983
723.387	1.789	Auditory_Lure	1	left	1.222	725.176	724.609
