onset	duration	trial_type	accuracy	button	response_time	time_to_offset_alternative_onset	time_to_RT_alternative_onset_or_duration
10.95	1.789	Visual_Different	1	left	0.886	12.739	11.836
13.324	1.789	Visual_Same	1	right	0.983	15.113	14.307
15.765	1.788	Visual_Different	1	left	0.809	17.553	16.574
18.59	1.554	Visual_Lure	1	left	0.788	20.144	19.378
20.696	1.789	Visual_Lure	1	left	0.991	22.485	21.687
23.287	1.789	Visual_Same	1	right	0.824	25.076	24.111
30.943	1.789	Auditory_Lure	1	left	0.887	32.732	31.83
33.233	1.789	Auditory_Different	1	left	1.219	35.022	34.452
35.825	1.788	Auditory_Lure	1	left	1.246	37.613	37.071
38.365	1.772	Auditory_Same	1	right	1.115	40.137	39.48
40.739	1.789	Auditory_Same	1	right	1.248	42.528	41.987
43.18	1.788	Auditory_Different	1	left	1.116	44.968	44.296
50.736	1.788	Visual_Lure	1	left	0.826	52.524	51.562
53.377	1.789	Visual_Lure	1	left	1.262	55.166	54.639
55.918	1.789	Visual_Same	1	right	1.537	57.707	57.455
58.258	1.789	Visual_Lure	1	left	0.822	60.047	59.08
60.899	1.772	Visual_Different	1	left	0.869	62.671	61.768
68.439	1.788	Auditory_Lure	1	left	1.644	70.227	70.083
70.829	1.789	Auditory_Same	1	right	1.208	72.618	72.037
73.27	1.788	Auditory_Lure	1	left	1.103	75.058	74.373
75.861	1.789	Auditory_Different	1	left	1.022	77.65	76.883
78.385	1.789	Auditory_Different	1	left	1.081	80.174	79.466
80.725	1.789	Auditory_Same	1	right	1.076	82.514	81.801
83.266	1.789	Auditory_Same	1	right	1.492	85.055	84.758
90.839	1.789	Visual_Different	1	left	0.851	92.628	91.69
93.28	1.788	Visual_Different	1	left	1.092	95.068	94.372
95.871	1.788	Visual_Same	0	NA	NA	97.659	NA
98.211	1.789	Visual_Lure	1	left	0.695	100	98.906
100.835	1.789	Visual_Different	1	left	0.611	102.624	101.446
108.241	1.789	Auditory_Different	1	left	0.997	110.03	109.238
110.882	1.789	Auditory_Same	1	right	1.289	112.671	112.171
113.423	1.789	Auditory_Different	1	left	1.104	115.212	114.527
115.697	1.788	Auditory_Lure	1	left	1.088	117.485	116.785
118.288	1.788	Auditory_Lure	1	left	1.156	120.076	119.444
120.829	1.788	Auditory_Same	1	right	1.044	122.617	121.873
128.301	1.772	Visual_Lure	1	left	0.69	130.073	128.991
130.725	1.788	Visual_Different	1	left	0.654	132.513	131.379
133.416	1.789	Visual_Lure	1	left	0.812	135.205	134.228
135.807	1.788	Visual_Same	1	right	1.617	137.595	137.424
138.247	1.789	Visual_Same	0	NA	NA	140.036	NA
140.671	1.789	Visual_Different	1	left	0.596	142.46	141.267
148.294	1.789	Auditory_Different	1	left	1.099	150.083	149.393
150.835	1.789	Auditory_Same	1	right	1.18	152.624	152.015
153.409	1.789	Auditory_Lure	1	left	0.911	155.198	154.32
155.75	1.788	Auditory_Same	1	right	1.235	157.538	156.985
158.341	1.788	Auditory_Same	0	left	1.455	160.129	159.796
160.681	1.789	Auditory_Lure	1	left	1.15	162.47	161.831
163.222	1.789	Auditory_Lure	1	left	0.993	165.011	164.215
170.845	1.788	Visual_Same	0	NA	NA	172.633	NA
173.386	1.788	Visual_Same	1	right	1.579	175.174	174.965
175.91	1.789	Visual_Lure	1	left	0.681	177.699	176.591
178.25	1.789	Visual_Different	1	left	0.718	180.039	178.968
180.791	1.789	Visual_Same	0	left	1.616	182.58	182.407
188.447	1.789	Auditory_Same	1	right	1.262	190.236	189.709
190.821	1.789	Auditory_Same	0	NA	NA	192.61	NA
193.362	1.789	Auditory_Different	1	left	0.829	195.151	194.191
195.702	1.789	Auditory_Same	1	right	1.086	197.491	196.788
198.394	1.788	Auditory_Lure	1	left	0.886	200.182	199.28
205.95	1.772	Visual_Lure	1	left	0.825	207.722	206.775
208.373	1.789	Visual_Lure	1	left	0.624	210.162	208.997
210.714	1.788	Visual_Different	1	left	0.619	212.502	211.333
213.305	1.789	Visual_Same	0	left	1.322	215.094	214.627
215.896	1.789	Visual_Lure	1	left	0.988	217.685	216.884
223.285	1.788	Auditory_Lure	1	left	0.899	225.073	224.184
225.725	1.789	Auditory_Lure	1	left	0.683	227.514	226.408
228.367	1.788	Auditory_Same	1	right	0.801	230.155	229.168
230.807	1.789	Auditory_Lure	1	left	0.726	232.596	231.533
233.398	1.789	Auditory_Different	1	left	1.03	235.187	234.428
240.887	1.789	Visual_Same	0	left	1.585	242.676	242.472
243.228	1.788	Visual_Same	1	right	0.89	245.016	244.118
245.769	1.788	Visual_Different	1	left	0.511	247.557	246.28
248.41	1.772	Visual_Same	0	left	1.605	250.182	250.015
250.733	1.789	Visual_Lure	1	left	1.046	252.522	251.779
258.339	1.789	Auditory_Same	1	right	0.957	260.128	259.296
260.88	1.789	Auditory_Different	1	left	0.708	262.669	261.588
263.221	1.788	Auditory_Same	1	right	0.941	265.009	264.162
265.745	1.789	Auditory_Lure	1	left	1.067	267.534	266.812
268.386	1.789	Auditory_Lure	1	left	0.966	270.175	269.352
270.777	1.788	Auditory_Different	1	left	0.838	272.565	271.615
273.217	1.789	Auditory_Different	1	left	0.796	275.006	274.013
280.84	1.789	Visual_Different	1	left	0.568	282.629	281.408
283.231	1.788	Visual_Same	0	NA	NA	285.019	NA
285.872	1.788	Visual_Lure	1	left	0.801	287.66	286.673
288.245	1.789	Visual_Same	1	right	1.034	290.034	289.279
290.837	1.788	Visual_Same	0	left	1.474	292.625	292.311
293.277	1.789	Visual_Lure	1	left	0.973	295.066	294.25
295.868	1.789	Visual_Lure	1	left	1.15	297.657	297.018
303.24	1.789	Auditory_Same	1	right	1.102	305.029	304.342
305.882	1.788	Auditory_Lure	1	left	0.618	307.67	306.5
308.305	1.789	Auditory_Same	1	right	0.988	310.094	309.293
310.896	1.789	Auditory_Different	1	left	1.086	312.685	311.982
313.237	1.788	Auditory_Different	1	left	0.819	315.025	314.056
315.677	1.789	Auditory_Lure	1	left	1.145	317.466	316.822
323.233	1.789	Visual_Lure	1	left	0.846	325.022	324.079
325.875	1.788	Visual_Lure	1	left	0.812	327.663	326.687
328.315	1.789	Visual_Same	0	left	1.31	330.104	329.625
330.756	1.788	Visual_Different	1	left	0.695	332.544	331.451
333.397	1.772	Visual_Different	1	left	0.636	335.169	334.033
335.67	1.789	Visual_Lure	1	left	0.759	337.459	336.429
343.394	1.788	Auditory_Different	1	left	1.129	345.182	344.523
345.918	1.788	Auditory_Different	1	left	0.974	347.706	346.892
348.358	1.789	Auditory_Lure	1	left	1.045	350.147	349.403
350.799	1.789	Auditory_Different	1	left	0.684	352.588	351.483
353.189	1.789	Auditory_Same	1	right	0.927	354.978	354.116
360.896	1.789	Visual_Same	0	NA	NA	362.685	NA
363.27	1.788	Visual_Different	1	left	0.809	365.058	364.079
365.811	1.788	Visual_Same	1	right	0.911	367.599	366.722
368.201	1.789	Visual_Lure	1	left	0.702	369.99	368.903
370.892	1.789	Visual_Lure	1	left	0.605	372.681	371.497
373.283	1.772	Visual_Different	1	left	0.564	375.055	373.847
375.857	1.789	Visual_Different	1	left	0.605	377.646	376.462
383.279	1.789	Auditory_Same	1	right	0.938	385.068	384.217
385.82	1.789	Auditory_Lure	1	left	0.945	387.609	386.765
388.211	1.788	Auditory_Different	1	left	0.737	389.999	388.948
390.902	1.789	Auditory_Lure	1	left	0.829	392.691	391.731
393.343	1.788	Auditory_Lure	1	left	1.221	395.131	394.564
395.717	1.788	Auditory_Different	1	left	0.792	397.505	396.509
398.257	1.789	Auditory_Different	1	left	0.871	400.046	399.128
405.73	1.788	Visual_Same	1	right	1.078	407.518	406.808
408.271	1.788	Visual_Lure	1	left	0.544	410.059	408.815
410.862	1.788	Visual_Same	1	right	1.136	412.65	411.998
413.302	1.789	Visual_Different	1	left	0.535	415.091	413.837
415.743	1.789	Visual_Different	1	left	0.61	417.532	416.353
418.167	1.789	Visual_Lure	1	left	0.559	419.956	418.726
425.94	1.789	Auditory_Same	1	right	0.9	427.729	426.84
428.381	1.788	Auditory_Same	1	right	0.985	430.169	429.366
430.704	1.789	Auditory_Lure	1	left	0.705	432.493	431.409
433.245	1.789	Auditory_Different	1	left	0.813	435.034	434.058
435.836	1.789	Auditory_Same	1	right	0.957	437.625	436.793
443.392	1.789	Visual_Different	1	left	1.09	445.181	444.482
445.916	1.789	Visual_Lure	1	left	0.753	447.705	446.669
448.357	1.789	Visual_Different	1	left	0.738	450.146	449.095
450.898	1.789	Visual_Same	1	right	1.288	452.687	452.186
453.238	1.789	Visual_Same	0	NA	NA	455.027	NA
455.662	1.789	Visual_Lure	1	left	0.591	457.451	456.253
458.253	1.789	Visual_Lure	1	left	0.713	460.042	458.966
465.843	1.788	Auditory_Same	1	right	0.944	467.631	466.787
468.417	1.789	Auditory_Same	1	right	0.741	470.206	469.158
470.757	1.789	Auditory_Different	1	left	0.966	472.546	471.723
473.198	1.789	Auditory_Lure	0	right	0.771	474.987	473.969
475.889	1.789	Auditory_Lure	1	left	1.624	477.678	477.513
478.28	1.789	Auditory_Same	1	right	1.063	480.069	479.343
485.735	1.789	Visual_Different	1	left	0.597	487.524	486.332
488.377	1.788	Visual_Different	1	left	0.643	490.165	489.02
490.918	1.772	Visual_Lure	1	left	0.818	492.69	491.736
493.291	1.789	Visual_Different	1	left	0.534	495.08	493.825
495.732	1.789	Visual_Same	1	right	1.56	497.521	497.292
503.238	1.788	Auditory_Lure	1	left	1.053	505.026	504.291
505.779	1.788	Auditory_Different	1	left	0.869	507.567	506.648
508.353	1.789	Auditory_Same	1	right	0.847	510.142	509.2
510.743	1.789	Auditory_Different	1	left	0.868	512.532	511.611
513.335	1.788	Auditory_Different	1	left	0.793	515.123	514.128
515.875	1.789	Auditory_Same	1	right	0.911	517.664	516.786
518.149	1.789	Auditory_Same	1	right	1.094	519.938	519.243
525.889	1.788	Visual_Different	1	left	0.849	527.677	526.738
528.229	1.772	Visual_Different	1	left	0.676	530.001	528.905
530.904	1.788	Visual_Lure	1	left	0.996	532.692	531.9
533.294	1.789	Visual_Same	0	left	1.738	535.083	535.032
535.735	1.788	Visual_Same	0	NA	NA	537.523	NA
538.326	1.789	Visual_Different	1	left	0.922	540.115	539.248
545.832	1.788	Auditory_Lure	1	left	1.189	547.62	547.021
548.222	1.789	Auditory_Lure	1	left	0.844	550.011	549.066
550.913	1.789	Auditory_Same	1	right	0.885	552.702	551.798
553.254	1.772	Auditory_Different	1	left	0.731	555.026	553.985
555.828	1.789	Auditory_Different	1	left	0.833	557.617	556.661
558.269	1.788	Auditory_Lure	1	left	0.772	560.057	559.041
565.841	1.789	Visual_Lure	1	left	0.957	567.63	566.798
568.265	1.789	Visual_Different	1	left	0.576	570.054	568.841
570.906	1.789	Visual_Same	0	left	1.678	572.695	572.584
573.197	1.788	Visual_Different	1	left	1.002	574.985	574.199
575.888	1.789	Visual_Different	1	left	0.745	577.677	576.633
578.262	1.788	Visual_Same	1	right	0.707	580.05	578.969
580.702	1.789	Visual_Same	0	left	1.093	582.491	581.795
588.225	1.789	Auditory_Lure	1	left	0.974	590.014	589.199
590.916	1.789	Auditory_Lure	1	left	1.185	592.705	592.101
593.257	1.788	Auditory_Different	1	left	0.998	595.045	594.255
595.848	1.788	Auditory_Same	1	right	0.852	597.636	596.7
598.288	1.789	Auditory_Lure	1	left	0.747	600.077	599.035
605.878	1.788	Visual_Lure	1	left	0.902	607.666	606.78
608.218	1.789	Visual_Same	1	right	0.843	610.007	609.061
610.909	1.789	Visual_Lure	1	left	0.566	612.698	611.475
613.35	1.789	Visual_Different	1	left	0.77	615.139	614.12
615.774	1.788	Visual_Different	1	left	0.502	617.562	616.276
618.164	1.789	Visual_Same	1	right	0.928	619.953	619.092
620.705	1.789	Visual_Same	1	right	1.475	622.494	622.18
628.378	1.789	Auditory_Different	1	left	1.027	630.167	629.405
630.819	1.788	Auditory_Different	1	left	0.989	632.607	631.808
633.259	1.789	Auditory_Same	1	right	1.046	635.048	634.305
635.901	1.788	Auditory_Lure	1	left	0.811	637.689	636.712
638.174	1.789	Auditory_Different	1	left	0.765	639.963	638.939
645.931	1.788	Visual_Same	0	left	0.986	647.719	646.917
648.271	1.789	Visual_Lure	1	left	1.765	650.06	650.036
650.862	1.789	Visual_Different	1	left	0.853	652.651	651.715
653.186	1.788	Visual_Lure	1	left	0.974	654.974	654.16
655.777	1.788	Visual_Lure	1	left	0.794	657.565	656.571
658.368	1.788	Visual_Different	1	left	0.842	660.156	659.21
660.708	1.789	Visual_Different	1	left	0.507	662.497	661.215
668.381	1.789	Auditory_Different	1	left	0.87	670.17	669.251
670.822	1.788	Auditory_Different	1	left	0.862	672.61	671.684
673.413	1.788	Auditory_Lure	1	left	0.963	675.201	674.376
675.686	1.789	Auditory_Same	1	right	0.711	677.475	676.397
678.227	1.789	Auditory_Same	1	right	0.74	680.016	678.967
680.868	1.789	Auditory_Different	1	left	1.025	682.657	681.893
688.374	1.789	Visual_Same	1	right	0.921	690.163	689.295
690.714	1.789	Visual_Same	1	right	1.623	692.503	692.337
693.305	1.789	Visual_Different	1	left	0.663	695.094	693.968
695.746	1.789	Visual_Lure	1	left	0.725	697.535	696.471
698.287	1.789	Visual_Lure	1	left	0.639	700.076	698.926
700.811	1.789	Visual_Same	1	right	1.149	702.6	701.96
708.384	1.788	Auditory_Different	1	left	0.75	710.172	709.134
710.824	1.789	Auditory_Lure	1	left	0.959	712.613	711.783
713.198	1.789	Auditory_Different	1	left	1.129	714.987	714.327
715.739	1.789	Auditory_Same	1	right	0.961	717.528	716.7
718.18	1.788	Auditory_Same	1	right	1.342	719.968	719.522
720.721	1.788	Auditory_Lure	1	left	1.087	722.509	721.808
723.312	1.772	Auditory_Lure	1	left	0.967	725.084	724.279
