onset	duration	trial_type	accuracy	button	response_time	trial_type_less_granular	time_to_offset_alternative_onset	time_to_RT_alternative_onset_or_duration
8.85600000000002	1.455	recently_learned_faces_baseline	1	right	0.978	recently_learned_faces_baseline	10.289	9.83400000000002
11.347	2.508	recently_learned_faces_baseline	1	right	1.067	recently_learned_faces_baseline	13.828	12.414
14.874	2.508	famous_faces_baseline	1	left	1.22	famous_faces_baseline	17.367	16.094
18.418	2.508	famous_faces_baseline	1	right	0.999	famous_faces_baseline	20.905	19.417
21.711	2.508	famous_faces_false_combination	1	right	2.202	famous_faces	24.192	23.913
25.339	2.507	famous_faces_correct_combination	1	left	1.632	famous_faces	27.831	26.971
28.732	2.508	recently_learned_faces_false_combination	1	right	1.722	recently_learned_faces	31.218	30.454
32.176	2.507	recently_learned_faces_false_combination	1	right	1.229	recently_learned_faces	34.656	33.405
35.753	2.508	famous_faces_false_combination	1	right	1.451	famous_faces	38.245	37.204
39.347	2.508	famous_faces_baseline	1	left	0.973	famous_faces_baseline	41.834	40.32
42.691	2.507	recently_learned_faces_baseline	1	left	0.685	recently_learned_faces_baseline	45.171	43.376
46.318	2.508	famous_faces_false_combination	1	right	0.832	famous_faces	48.81	47.15
49.762	2.507	famous_faces_baseline	1	right	0.996	famous_faces_baseline	52.248	50.758
55.295	2.507	famous_faces_baseline	1	right	0.743	famous_faces_baseline	57.788	56.038
58.839	2.507	recently_learned_faces_correct_combination	1	left	1.602	recently_learned_faces	61.327	60.441
62.232	2.508	recently_learned_faces_false_combination	1	right	0.898	recently_learned_faces	64.715	63.13
65.86	2.524	famous_faces_correct_combination	1	left	1.573	famous_faces	68.354	67.433
69.404	2.507	famous_faces_false_combination	1	right	0.921	famous_faces	71.892	70.325
72.847	2.508	recently_learned_faces_false_combination	1	right	1.902	recently_learned_faces	75.33	74.749
76.174	2.507	famous_faces_false_combination	1	right	0.994	famous_faces	78.667	77.168
79.768	2.508	recently_learned_faces_false_combination	1	right	0.952	recently_learned_faces	82.256	80.72
83.212	2.507	recently_learned_faces_false_combination	1	right	1.001	recently_learned_faces	85.694	84.213
86.839	2.508	famous_faces_baseline	1	right	0.867	famous_faces_baseline	89.333	87.706
90.233	2.507	famous_faces_baseline	1	right	0.648	famous_faces_baseline	92.721	90.881
93.626	2.508	famous_faces_false_combination	1	right	0.79	famous_faces	96.109	94.416
97.153	2.508	recently_learned_faces_false_combination	0	left	1.632	recently_learned_faces	99.647	98.785
102.804	2.507	recently_learned_faces_correct_combination	1	left	1.391	recently_learned_faces	105.287	104.195
106.347	2.508	famous_faces_correct_combination	1	left	1.002	famous_faces	108.826	107.349
109.724	2.508	recently_learned_faces_correct_combination	1	left	1.304	recently_learned_faces	112.214	111.028
113.368	2.508	recently_learned_faces_false_combination	1	right	1.255	recently_learned_faces	115.853	114.623
116.912	2.508	recently_learned_faces_correct_combination	1	left	1.445	recently_learned_faces	119.391	118.357
120.289	2.508	famous_faces_correct_combination	1	left	0.832	famous_faces	122.779	121.121
123.683	2.507	famous_faces_correct_combination	1	left	0.979	famous_faces	126.167	124.662
127.377	2.507	recently_learned_faces_correct_combination	1	left	2.267	recently_learned_faces	129.856	129.644
130.804	2.507	famous_faces_baseline	1	left	0.798	famous_faces_baseline	133.294	131.602
134.197	2.508	recently_learned_faces_baseline	1	right	0.781	recently_learned_faces_baseline	136.681	134.978
137.791	2.508	famous_faces_baseline	1	left	0.745	famous_faces_baseline	140.27	138.536
141.318	2.508	famous_faces_correct_combination	1	left	0.928	famous_faces	143.808	142.246
144.712	2.507	recently_learned_faces_correct_combination	1	left	1.236	recently_learned_faces	147.196	145.948
150.446	2.507	famous_faces_baseline	1	right	0.769	famous_faces_baseline	152.937	151.215
153.889	2.508	famous_faces_correct_combination	1	left	1.123	famous_faces	156.375	155.012
157.333	2.507	famous_faces_baseline	1	right	0.721	famous_faces_baseline	159.813	158.054
160.71	2.507	recently_learned_faces_correct_combination	1	left	1.314	recently_learned_faces	163.201	162.024
164.254	2.507	recently_learned_faces_baseline	1	left	0.767	recently_learned_faces_baseline	166.739	165.021
167.848	2.507	recently_learned_faces_correct_combination	1	left	0.789	recently_learned_faces	170.328	168.637
171.375	2.507	recently_learned_faces_correct_combination	1	left	2.4	recently_learned_faces	173.866	173.775
174.768	2.508	recently_learned_faces_correct_combination	1	left	1.129	recently_learned_faces	177.254	175.897
178.212	2.507	famous_faces_false_combination	1	right	0.959	famous_faces	180.692	179.171
181.639	2.507	recently_learned_faces_baseline	1	left	0.725	recently_learned_faces_baseline	184.13	182.364
185.233	2.507	famous_faces_false_combination	1	right	0.841	famous_faces	187.719	186.074
188.777	2.507	famous_faces_false_combination	1	right	0.913	famous_faces	191.258	189.69
192.304	2.508	famous_faces_baseline	1	right	0.676	famous_faces_baseline	194.796	192.98
197.754	2.507	recently_learned_faces_false_combination	1	right	1.837	recently_learned_faces	200.235	199.591
201.281	2.507	famous_faces_false_combination	1	right	1.115	famous_faces	203.773	202.396
204.825	2.507	recently_learned_faces_correct_combination	1	left	1.021	recently_learned_faces	207.312	205.846
208.419	2.507	famous_faces_false_combination	1	right	0.802	famous_faces	210.901	209.221
211.846	2.524	famous_faces_baseline	1	left	0.694	famous_faces_baseline	214.339	212.54
215.289	2.508	recently_learned_faces_false_combination	0	left	1.429	recently_learned_faces	217.777	216.718
218.733	2.507	recently_learned_faces_false_combination	1	right	1.84	recently_learned_faces	221.215	220.573
222.36	2.525	famous_faces_correct_combination	1	left	0.725	famous_faces	224.854	223.085
225.654	2.507	recently_learned_faces_baseline	1	right	0.786	recently_learned_faces_baseline	228.141	226.44
229.298	2.507	famous_faces_baseline	1	right	0.645	famous_faces_baseline	231.78	229.943
232.725	2.507	recently_learned_faces_baseline	1	left	1.073	recently_learned_faces_baseline	235.218	233.798
236.118	2.508	recently_learned_faces_baseline	1	right	0.79	recently_learned_faces_baseline	238.606	236.908
239.662	2.508	recently_learned_faces_false_combination	0	left	2.386	recently_learned_faces	242.144	242.048
245.446	2.507	recently_learned_faces_baseline	1	right	0.68	recently_learned_faces_baseline	247.935	246.126
248.789	2.508	famous_faces_correct_combination	1	left	0.754	famous_faces	251.272	249.543
252.367	2.524	famous_faces_correct_combination	1	left	0.737	famous_faces	254.861	253.104
255.81	2.508	famous_faces_baseline	1	right	0.697	famous_faces_baseline	258.299	256.507
259.204	2.507	recently_learned_faces_correct_combination	1	left	1.076	recently_learned_faces	261.687	260.28
262.881	2.525	recently_learned_faces_correct_combination	1	left	1.357	recently_learned_faces	265.376	264.238
266.325	2.507	famous_faces_correct_combination	1	left	0.819	famous_faces	268.814	267.144
269.718	2.508	famous_faces_false_combination	1	right	0.703	famous_faces	272.201	270.421
273.145	2.525	famous_faces_correct_combination	1	left	0.67	famous_faces	275.639	273.815
276.739	2.508	famous_faces_baseline	1	left	0.746	famous_faces_baseline	279.228	277.485
280.283	2.508	recently_learned_faces_correct_combination	1	left	1.247	recently_learned_faces	282.767	281.53
283.61	2.524	famous_faces_false_combination	1	right	0.828	famous_faces	286.104	284.438
287.204	2.507	recently_learned_faces_correct_combination	1	left	1.114	recently_learned_faces	289.693	288.318
292.804	2.508	recently_learned_faces_correct_combination	0	right	2.337	recently_learned_faces	295.283	295.141
296.381	2.508	famous_faces_false_combination	1	right	1.128	famous_faces	298.872	297.509
299.825	2.507	famous_faces_false_combination	1	right	0.831	famous_faces	302.31	300.656
303.419	2.508	recently_learned_faces_baseline	1	right	0.844	recently_learned_faces_baseline	305.899	304.263
306.696	2.507	famous_faces_correct_combination	1	left	0.735	famous_faces	309.186	307.431
310.39	2.507	recently_learned_faces_baseline	1	left	0.948	recently_learned_faces_baseline	312.875	311.338
313.783	2.508	famous_faces_correct_combination	1	left	0.722	famous_faces	316.263	314.505
317.21	2.508	recently_learned_faces_correct_combination	1	left	1.308	recently_learned_faces	319.701	318.518
320.654	2.507	recently_learned_faces_false_combination	1	right	0.91	recently_learned_faces	323.139	321.564
324.298	2.508	recently_learned_faces_false_combination	0	left	0.979	recently_learned_faces	326.778	325.277
327.825	2.508	recently_learned_faces_correct_combination	1	left	0.921	recently_learned_faces	330.316	328.746
331.269	2.507	recently_learned_faces_baseline	1	right	1.136	recently_learned_faces_baseline	333.754	332.405
334.713	2.507	famous_faces_correct_combination	1	left	0.758	famous_faces	337.192	335.471
340.296	2.507	recently_learned_faces_baseline	1	left	0.688	recently_learned_faces_baseline	342.782	340.984
343.94	2.508	recently_learned_faces_baseline	1	right	0.959	recently_learned_faces_baseline	346.421	344.899
347.216	2.508	famous_faces_false_combination	1	right	0.751	famous_faces	349.708	347.967
350.861	2.507	recently_learned_faces_correct_combination	1	left	1.38	recently_learned_faces	353.347	352.241
354.304	2.508	famous_faces_false_combination	1	right	0.936	famous_faces	356.785	355.24
357.681	2.508	recently_learned_faces_baseline	1	right	0.746	recently_learned_faces_baseline	360.173	358.427
361.225	2.507	recently_learned_faces_baseline	0	right	0.455	recently_learned_faces_baseline	363.711	361.68
364.819	2.508	recently_learned_faces_false_combination	1	right	1.196	recently_learned_faces	367.3	366.015
368.346	2.508	famous_faces_false_combination	1	right	0.837	famous_faces	370.838	369.183
371.74	2.507	famous_faces_correct_combination	1	left	0.746	famous_faces	374.226	372.486
375.133	2.508	famous_faces_false_combination	1	right	0.865	famous_faces	377.614	375.998
378.711	2.524	recently_learned_faces_baseline	1	right	0.834	recently_learned_faces_baseline	381.203	379.545
382.254	2.508	recently_learned_faces_false_combination	1	right	1.697	recently_learned_faces	384.742	383.951
387.938	2.524	recently_learned_faces_baseline	1	left	0.752	recently_learned_faces_baseline	390.432	388.69
391.332	2.507	famous_faces_false_combination	1	right	0.726	famous_faces	393.82	392.058
394.725	2.507	famous_faces_correct_combination	1	left	0.715	famous_faces	397.208	395.44
398.252	2.524	recently_learned_faces_baseline	1	right	0.725	recently_learned_faces_baseline	400.746	398.977
401.846	2.508	recently_learned_faces_correct_combination	1	left	0.864	recently_learned_faces	404.335	402.71
405.29	2.507	famous_faces_correct_combination	1	left	0.79	famous_faces	407.773	406.08
408.717	2.524	recently_learned_faces_false_combination	0	left	1.759	recently_learned_faces	411.211	410.476
412.16	2.508	famous_faces_correct_combination	1	left	0.786	famous_faces	414.649	412.946
415.805	2.507	famous_faces_false_combination	1	right	0.78	famous_faces	418.288	416.585
419.332	2.524	famous_faces_baseline	1	right	0.789	famous_faces_baseline	421.826	420.121
422.625	2.507	famous_faces_correct_combination	1	left	0.906	famous_faces	425.113	423.531
426.169	2.507	famous_faces_baseline	1	right	0.657	famous_faces_baseline	428.651	426.826
429.796	2.525	famous_faces_baseline	1	left	0.787	famous_faces_baseline	432.29	430.583
435.447	2.507	recently_learned_faces_baseline	1	left	0.643	recently_learned_faces_baseline	437.931	436.09
438.89	2.508	recently_learned_faces_false_combination	0	left	1.132	recently_learned_faces	441.369	440.022
442.267	2.507	recently_learned_faces_correct_combination	1	left	0.68	recently_learned_faces	444.756	442.947
445.811	2.507	recently_learned_faces_baseline	1	left	0.809	recently_learned_faces_baseline	448.295	446.62
449.204	2.508	recently_learned_faces_false_combination	1	right	1.439	recently_learned_faces	451.683	450.643
452.832	2.507	recently_learned_faces_baseline	1	left	0.793	recently_learned_faces_baseline	455.322	453.625
456.376	2.507	recently_learned_faces_baseline	1	left	0.816	recently_learned_faces_baseline	458.86	457.192
459.769	2.508	famous_faces_baseline	1	left	0.885	famous_faces_baseline	462.248	460.654
463.196	2.508	famous_faces_correct_combination	1	left	0.747	famous_faces	465.686	463.943
466.64	2.507	famous_faces_baseline	1	right	0.798	famous_faces_baseline	469.124	467.438
470.334	2.508	famous_faces_false_combination	0	left	0.91	famous_faces	472.813	471.244
473.761	2.507	famous_faces_false_combination	1	right	1.531	famous_faces	476.251	475.292
477.104	2.508	recently_learned_faces_baseline	1	left	0.64	recently_learned_faces_baseline	479.588	477.744
482.838	2.524	famous_faces_baseline	1	right	0.777	famous_faces_baseline	485.33	483.615
486.231	2.508	recently_learned_faces_correct_combination	1	left	1.621	recently_learned_faces	488.718	487.852
489.926	2.507	recently_learned_faces_baseline	1	left	1.075	recently_learned_faces_baseline	492.407	491.001
493.252	2.508	recently_learned_faces_correct_combination	1	left	0.93	recently_learned_faces	495.744	494.182
496.846	2.508	famous_faces_baseline	1	left	0.815	famous_faces_baseline	499.333	497.661
500.29	2.508	recently_learned_faces_false_combination	1	right	1.001	recently_learned_faces	502.771	501.291
503.867	2.525	famous_faces_false_combination	1	right	1.295	famous_faces	506.36	505.162
507.311	2.508	recently_learned_faces_baseline	1	left	0.67	recently_learned_faces_baseline	509.798	507.981
510.705	2.507	famous_faces_baseline	1	right	0.749	famous_faces_baseline	513.185	511.454
514.131	2.508	recently_learned_faces_false_combination	1	right	0.888	recently_learned_faces	516.623	515.019
517.826	2.507	famous_faces_baseline	1	left	1.077	famous_faces_baseline	520.312	518.903
521.269	2.508	famous_faces_false_combination	1	right	0.877	famous_faces	523.75	522.146
524.696	2.508	recently_learned_faces_false_combination	1	right	0.804	recently_learned_faces	527.188	525.5
530.246	2.508	famous_faces_correct_combination	1	left	0.831	famous_faces	532.728	531.077
533.874	2.524	recently_learned_faces_false_combination	1	right	2.153	recently_learned_faces	536.367	536.027
537.317	2.508	recently_learned_faces_baseline	1	right	0.78	recently_learned_faces_baseline	539.805	538.097
540.761	2.507	recently_learned_faces_correct_combination	1	left	0.884	recently_learned_faces	543.243	541.645
544.388	2.525	famous_faces_correct_combination	1	left	0.73	famous_faces	546.882	545.118
547.782	2.507	famous_faces_correct_combination	1	left	0.711	famous_faces	550.27	548.493
551.326	2.507	recently_learned_faces_false_combination	1	right	0.851	recently_learned_faces	553.809	552.177
554.703	2.524	famous_faces_baseline	1	left	0.942	famous_faces_baseline	557.196	555.645
558.146	2.508	famous_faces_false_combination	1	right	0.743	famous_faces	560.634	558.889
561.841	2.507	famous_faces_false_combination	1	right	0.921	famous_faces	564.323	562.762
565.117	2.524	famous_faces_false_combination	1	right	0.792	famous_faces	567.61	565.909
568.761	2.508	recently_learned_faces_false_combination	1	right	2.265	recently_learned_faces	571.249	571.026
572.205	2.507	recently_learned_faces_false_combination	0	NA	NA	recently_learned_faces	574.687	NA
577.738	2.508	recently_learned_faces_baseline	1	left	0.941	recently_learned_faces_baseline	580.227	578.679
581.382	2.508	recently_learned_faces_baseline	1	right	0.8	recently_learned_faces_baseline	583.866	582.182
584.909	2.525	recently_learned_faces_false_combination	1	right	1.87	recently_learned_faces	587.404	586.779
588.303	2.507	famous_faces_correct_combination	1	left	0.672	famous_faces	590.792	588.975
591.747	2.507	recently_learned_faces_baseline	1	right	0.651	recently_learned_faces_baseline	594.23	592.398
595.173	2.525	famous_faces_correct_combination	1	left	0.711	famous_faces	597.668	595.884
598.818	2.507	famous_faces_baseline	1	left	0.749	famous_faces_baseline	601.307	599.567
602.362	2.507	recently_learned_faces_false_combination	1	right	1.587	recently_learned_faces	604.845	603.949
605.755	2.507	recently_learned_faces_false_combination	1	right	0.905	recently_learned_faces	608.233	606.66
609.182	2.507	famous_faces_baseline	1	right	0.923	famous_faces_baseline	611.671	610.105
612.826	2.508	famous_faces_baseline	1	right	0.666	famous_faces_baseline	615.31	613.492
616.103	2.524	recently_learned_faces_baseline	1	left	0.805	recently_learned_faces_baseline	618.597	616.908
619.697	2.507	famous_faces_correct_combination	1	left	0.811	famous_faces	622.186	620.508
625.347	2.507	famous_faces_correct_combination	1	left	0.667	famous_faces	627.827	626.014
628.874	2.507	famous_faces_false_combination	1	right	0.747	famous_faces	631.366	629.621
632.217	2.508	famous_faces_correct_combination	1	left	0.82	famous_faces	634.703	633.037
635.912	2.507	famous_faces_false_combination	1	right	0.717	famous_faces	638.392	636.629
639.238	2.508	recently_learned_faces_false_combination	1	right	0.849	recently_learned_faces	641.729	640.087
642.682	2.507	famous_faces_false_combination	1	right	0.795	famous_faces	645.167	643.477
646.276	2.507	famous_faces_false_combination	1	right	0.761	famous_faces	648.756	647.037
649.853	2.508	recently_learned_faces_correct_combination	1	left	1.66	recently_learned_faces	652.345	651.513
653.297	2.507	famous_faces_baseline	1	left	0.925	famous_faces_baseline	655.783	654.222
656.69	2.508	recently_learned_faces_correct_combination	0	right	1.325	recently_learned_faces	659.17	658.015
660.117	2.508	recently_learned_faces_false_combination	1	right	0.938	recently_learned_faces	662.608	661.055
663.812	2.507	famous_faces_baseline	1	right	0.813	famous_faces_baseline	666.297	664.625
667.205	2.508	famous_faces_false_combination	1	right	0.798	famous_faces	669.685	668.003
672.738	2.508	recently_learned_faces_correct_combination	1	left	1.173	recently_learned_faces	675.225	673.911
676.382	2.508	recently_learned_faces_baseline	1	left	0.881	recently_learned_faces_baseline	678.864	677.263
679.759	2.508	recently_learned_faces_correct_combination	1	left	0.785	recently_learned_faces	682.251	680.544
683.403	2.508	famous_faces_false_combination	1	right	0.82	famous_faces	685.89	684.223
686.797	2.507	recently_learned_faces_correct_combination	1	left	0.936	recently_learned_faces	689.278	687.733
690.224	2.524	famous_faces_baseline	1	left	0.7	famous_faces_baseline	692.716	690.924
693.768	2.507	famous_faces_baseline	1	left	0.596	famous_faces_baseline	696.255	694.364
697.312	2.507	famous_faces_correct_combination	1	left	0.757	famous_faces	699.794	698.069
700.638	2.524	recently_learned_faces_false_combination	1	right	1.09	recently_learned_faces	703.131	701.728
704.333	2.507	recently_learned_faces_correct_combination	1	left	0.9	recently_learned_faces	706.82	705.233
707.626	2.507	recently_learned_faces_correct_combination	1	left	0.886	recently_learned_faces	710.107	708.512
711.203	2.508	famous_faces_baseline	1	left	0.799	famous_faces_baseline	713.696	712.002
714.647	2.507	recently_learned_faces_baseline	1	right	0.762	recently_learned_faces_baseline	717.134	715.409
720.38	2.525	famous_faces_false_combination	1	right	0.732	famous_faces	722.875	721.112
723.774	2.507	famous_faces_baseline	1	left	0.729	famous_faces_baseline	726.262	724.503
727.218	2.507	recently_learned_faces_false_combination	1	right	0.919	recently_learned_faces	729.7	728.137
730.795	2.524	famous_faces_correct_combination	1	left	0.765	famous_faces	733.289	731.56
734.389	2.507	recently_learned_faces_correct_combination	1	left	1.39	recently_learned_faces	736.878	735.779
737.782	2.508	recently_learned_faces_correct_combination	1	left	1.264	recently_learned_faces	740.266	739.046
741.176	2.507	famous_faces_correct_combination	1	left	0.637	famous_faces	743.654	741.813
744.803	2.508	recently_learned_faces_correct_combination	1	left	0.928	recently_learned_faces	747.293	745.731
748.347	2.508	recently_learned_faces_false_combination	1	right	0.834	recently_learned_faces	750.831	749.181
751.674	2.524	recently_learned_faces_baseline	1	right	0.776	recently_learned_faces_baseline	754.168	752.45
755.118	2.507	recently_learned_faces_correct_combination	1	left	1.041	recently_learned_faces	757.606	756.159
758.812	2.507	recently_learned_faces_false_combination	1	right	0.847	recently_learned_faces	761.295	759.659
762.138	2.525	recently_learned_faces_correct_combination	1	left	0.766	recently_learned_faces	764.632	762.904
767.839	2.507	recently_learned_faces_baseline	1	right	0.681	recently_learned_faces_baseline	770.324	768.52
771.433	2.507	famous_faces_false_combination	1	right	0.853	famous_faces	773.913	772.286
774.709	2.508	famous_faces_correct_combination	1	left	0.847	famous_faces	777.2	775.556
778.253	2.508	recently_learned_faces_false_combination	0	left	1.571	recently_learned_faces	780.738	779.824
781.847	2.508	famous_faces_baseline	1	left	1.237	famous_faces_baseline	784.327	783.084
785.274	2.508	famous_faces_correct_combination	1	left	0.664	famous_faces	787.765	785.938
788.868	2.508	famous_faces_correct_combination	1	left	0.637	famous_faces	791.354	789.505
792.161	2.508	famous_faces_correct_combination	1	left	0.636	famous_faces	794.641	792.797
