"onset"	"trial_type"	"accuracy"	"button"	"response_time"	"duration"	"time_to_offset_alternative_onset"	"time_to_RT_alternative_onset_or_duration"
10.738	"Visual_Different"	0	"right"	1.68	1.788	12.526	12.418
13.329	"Visual_Lure"	1	"left"	1.538	1.788	15.117	14.867
15.769	"Visual_Different"	1	"left"	1.487	1.789	17.558	17.256
18.411	"Visual_Same"	1	"right"	1.181	1.788	20.199	19.592
20.851	"Visual_Same"	1	"right"	1.534	1.789	22.64	22.385
23.175	"Visual_Lure"	1	"left"	1.344	1.789	24.964	24.519
25.766	"Visual_Lure"	1	"left"	1.488	1.789	27.555	27.254
33.439	"Auditory_Lure"	1	"left"	1.691	1.789	35.228	35.13
35.779	"Auditory_Lure"	1	"left"	1.059	1.789	37.568	36.838
38.37	"Auditory_Same"	1	"right"	1.08	1.789	40.159	39.45
40.711	"Auditory_Different"	0	NA	NA	1.788	42.499	NA
43.302	"Auditory_Different"	0	"right"	0.304	1.772	45.074	43.606
45.876	"Auditory_Lure"	0	NA	NA	1.789	47.665	NA
53.449	"Visual_Same"	1	"right"	0.87	1.789	55.238	54.319
55.773	"Visual_Lure"	1	"left"	0.836	1.788	57.561	56.609
58.364	"Visual_Different"	1	"left"	1.458	1.788	60.152	59.822
60.804	"Visual_Lure"	1	"left"	1.117	1.789	62.593	61.921
63.245	"Visual_Lure"	1	"left"	1.123	1.789	65.034	64.368
65.886	"Visual_Different"	1	"left"	1.349	1.789	67.675	67.235
68.31	"Visual_Different"	0	NA	NA	1.789	70.099	NA
75.749	"Auditory_Different"	1	"left"	1.312	1.789	77.538	77.061
78.374	"Auditory_Same"	1	"right"	1.113	1.788	80.162	79.487
80.764	"Auditory_Different"	1	"left"	1.294	1.789	82.553	82.058
83.305	"Auditory_Lure"	1	"left"	1.15	1.789	85.094	84.455
85.846	"Auditory_Lure"	1	"left"	1.092	1.789	87.635	86.938
88.287	"Auditory_Same"	1	"right"	1.033	1.788	90.075	89.32
95.742	"Visual_Different"	1	"left"	1.14	1.789	97.531	96.882
98.434	"Visual_Different"	1	"left"	0.982	1.788	100.222	99.416
100.724	"Visual_Lure"	1	"left"	1.017	1.772	102.496	101.741
103.348	"Visual_Same"	1	"right"	0.924	1.789	105.137	104.272
105.789	"Visual_Same"	1	"right"	1.08	1.789	107.578	106.869
108.23	"Visual_Different"	1	"left"	1.294	1.788	110.018	109.524
115.786	"Auditory_Lure"	1	"left"	0.792	1.788	117.574	116.578
118.427	"Auditory_Different"	1	"left"	1.326	1.789	120.216	119.753
120.717	"Auditory_Lure"	1	"left"	1.251	1.789	122.506	121.968
123.308	"Auditory_Same"	1	"right"	1.116	1.789	125.097	124.424
125.849	"Auditory_Same"	1	"right"	0.818	1.789	127.638	126.667
128.173	"Auditory_Different"	1	"left"	1.284	1.788	129.961	129.457
135.846	"Visual_Lure"	1	"left"	0.749	1.788	137.634	136.595
138.236	"Visual_Different"	1	"left"	1.043	1.789	140.025	139.279
140.76	"Visual_Same"	1	"right"	1.045	1.789	142.549	141.805
143.402	"Visual_Different"	1	"left"	0.944	1.788	145.19	144.346
145.842	"Visual_Different"	1	"left"	1.157	1.789	147.631	146.999
148.283	"Visual_Same"	1	"right"	1.028	1.789	150.072	149.311
150.724	"Visual_Same"	1	"right"	1.118	1.771	152.495	151.842
158.296	"Auditory_Same"	1	"right"	1.052	1.789	160.085	159.348
160.921	"Auditory_Same"	1	"right"	1.072	1.788	162.709	161.993
163.361	"Auditory_Lure"	1	"left"	0.815	1.789	165.15	164.176
165.802	"Auditory_Different"	1	"left"	0.938	1.789	167.591	166.74
168.193	"Auditory_Same"	1	"right"	0.973	1.788	169.981	169.166
175.949	"Visual_Lure"	1	"left"	0.767	1.789	177.738	176.716
178.223	"Visual_Lure"	1	"left"	0.749	1.788	180.011	178.972
180.864	"Visual_Different"	1	"left"	0.749	1.788	182.652	181.613
183.254	"Visual_Same"	1	"right"	0.903	1.789	185.043	184.157
185.695	"Visual_Lure"	1	"left"	0.716	1.789	187.484	186.411
193.284	"Auditory_Lure"	1	"left"	1.059	1.789	195.073	194.343
195.926	"Auditory_Same"	1	"right"	1.064	1.788	197.714	196.99
198.316	"Auditory_Lure"	1	"left"	0.941	1.789	200.105	199.257
200.857	"Auditory_Different"	1	"left"	0.984	1.789	202.646	201.841
203.197	"Auditory_Different"	1	"left"	0.818	1.789	204.986	204.015
205.722	"Auditory_Same"	1	"right"	1.167	1.788	207.51	206.889
208.363	"Auditory_Same"	1	"right"	0.935	1.788	210.151	209.298
215.835	"Visual_Lure"	1	"left"	0.863	1.789	217.624	216.698
218.426	"Visual_Different"	1	"left"	0.91	1.789	220.215	219.336
220.867	"Visual_Lure"	0	"right"	1.347	1.789	222.656	222.214
223.308	"Visual_Same"	1	"right"	1.338	1.788	225.096	224.646
225.899	"Visual_Same"	1	"right"	1.125	1.788	227.687	227.024
228.172	"Visual_Different"	1	"left"	0.79	1.789	229.961	228.962
235.745	"Auditory_Same"	1	"right"	0.949	1.788	237.533	236.694
238.436	"Auditory_Same"	1	"right"	0.772	1.789	240.225	239.208
240.86	"Auditory_Different"	1	"left"	1.033	1.789	242.649	241.893
243.251	"Auditory_Lure"	1	"left"	0.98	1.788	245.039	244.231
245.792	"Auditory_Lure"	1	"left"	0.81	1.788	247.58	246.602
248.232	"Auditory_Same"	1	"right"	0.624	1.789	250.021	248.856
255.888	"Visual_Lure"	1	"left"	0.968	1.789	257.677	256.856
258.279	"Visual_Same"	1	"right"	1.111	1.789	260.068	259.39
260.72	"Visual_Lure"	1	"left"	0.778	1.788	262.508	261.498
263.344	"Visual_Different"	1	"left"	0.889	1.789	265.133	264.233
265.785	"Visual_Different"	1	"left"	1.259	1.788	267.573	267.044
268.225	"Visual_Same"	1	"right"	1.23	1.789	270.014	269.455
270.867	"Visual_Same"	1	"right"	0.868	1.788	272.655	271.735
278.339	"Auditory_Same"	1	"right"	0.829	1.789	280.128	279.168
280.93	"Auditory_Different"	1	"left"	0.729	1.789	282.719	281.659
283.371	"Auditory_Same"	1	"right"	0.995	1.788	285.159	284.366
285.694	"Auditory_Lure"	1	"left"	1.053	1.789	287.483	286.747
288.285	"Auditory_Lure"	1	"left"	0.939	1.789	290.074	289.224
290.877	"Auditory_Different"	1	"left"	0.79	1.788	292.665	291.667
293.317	"Auditory_Different"	1	"left"	1.128	1.789	295.106	294.445
300.84	"Visual_Same"	1	"right"	1.017	1.788	302.628	301.857
303.431	"Visual_Same"	1	"right"	1.089	1.788	305.219	304.52
305.771	"Visual_Different"	1	"left"	0.978	1.789	307.56	306.749
308.345	"Visual_Lure"	1	"left"	0.714	1.789	310.134	309.059
310.686	"Visual_Lure"	1	"left"	0.752	1.788	312.474	311.438
313.277	"Visual_Same"	1	"right"	1.198	1.789	315.066	314.475
320.733	"Auditory_Different"	1	"left"	1.525	1.788	322.521	322.258
323.273	"Auditory_Same"	1	"right"	1.007	1.789	325.062	324.28
325.714	"Auditory_Lure"	1	"left"	0.825	1.789	327.503	326.539
328.406	"Auditory_Same"	1	"right"	0.99	1.788	330.194	329.396
330.729	"Auditory_Same"	1	"right"	0.931	1.789	332.518	331.66
333.32	"Auditory_Lure"	1	"left"	0.801	1.789	335.109	334.121
335.761	"Auditory_Lure"	1	"left"	0.98	1.789	337.55	336.741
343.434	"Visual_Different"	1	"left"	0.733	1.789	345.223	344.167
345.874	"Visual_Different"	1	"left"	1.101	1.789	347.663	346.975
348.265	"Visual_Same"	1	"right"	0.906	1.789	350.054	349.171
350.706	"Visual_Lure"	1	"left"	1.198	1.788	352.494	351.904
353.33	"Visual_Different"	1	"left"	0.965	1.789	355.119	354.295
360.736	"Auditory_Different"	1	"left"	0.915	1.788	362.524	361.651
363.427	"Auditory_Different"	1	"left"	1.091	1.789	365.216	364.518
365.868	"Auditory_Lure"	1	"left"	1.068	1.788	367.656	366.936
368.241	"Auditory_Different"	1	"left"	0.966	1.789	370.03	369.207
370.782	"Auditory_Same"	1	"right"	0.869	1.789	372.571	371.651
378.238	"Visual_Lure"	1	"left"	1.136	1.789	380.027	379.374
380.929	"Visual_Lure"	1	"left"	1.032	1.789	382.718	381.961
383.32	"Visual_Same"	1	"right"	0.888	1.789	385.109	384.208
385.744	"Visual_Different"	1	"left"	1.013	1.789	387.533	386.757
388.385	"Visual_Different"	1	"left"	0.666	1.789	390.174	389.051
390.725	"Visual_Lure"	1	"left"	0.998	1.789	392.514	391.723
398.231	"Auditory_Different"	1	"left"	1.011	1.789	400.02	399.242
400.872	"Auditory_Different"	1	"left"	0.86	1.789	402.661	401.732
403.313	"Auditory_Lure"	1	"left"	0.855	1.789	405.102	404.168
405.904	"Auditory_Same"	1	"right"	0.97	1.789	407.693	406.874
408.245	"Auditory_Same"	1	"right"	0.806	1.772	410.017	409.051
410.819	"Auditory_Different"	1	"left"	1.016	1.789	412.608	411.835
418.341	"Visual_Same"	1	"right"	1.056	1.789	420.13	419.397
420.732	"Visual_Same"	1	"right"	1.7	1.789	422.521	422.432
423.356	"Visual_Different"	1	"left"	1.086	1.789	425.145	424.442
425.797	"Visual_Same"	1	"right"	1.503	1.789	427.586	427.3
428.188	"Visual_Lure"	1	"left"	1.085	1.788	429.976	429.273
435.944	"Auditory_Same"	1	"right"	1.567	1.789	437.733	437.511
438.318	"Auditory_Lure"	1	"left"	0.889	1.789	440.107	439.207
440.708	"Auditory_Different"	1	"left"	0.804	1.789	442.497	441.512
443.249	"Auditory_Lure"	1	"left"	1.058	1.789	445.038	444.307
445.69	"Auditory_Lure"	1	"left"	0.863	1.789	447.479	446.553
448.231	"Auditory_Different"	1	"left"	0.874	1.789	450.02	449.105
450.755	"Auditory_Different"	1	"left"	0.671	1.789	452.544	451.426
458.395	"Visual_Same"	1	"right"	0.94	1.788	460.183	459.335
460.919	"Visual_Lure"	1	"left"	0.725	1.789	462.708	461.644
463.259	"Visual_Same"	1	"right"	0.895	1.789	465.048	464.154
465.85	"Visual_Different"	1	"left"	0.676	1.789	467.639	466.526
468.191	"Visual_Different"	1	"left"	0.877	1.788	469.979	469.068
470.865	"Visual_Lure"	1	"left"	0.761	1.789	472.654	471.626
478.438	"Auditory_Lure"	1	"left"	1.199	1.789	480.227	479.637
480.879	"Auditory_Different"	1	"left"	0.811	1.788	482.667	481.69
483.252	"Auditory_Same"	1	"right"	0.742	1.789	485.041	483.994
485.894	"Auditory_Different"	1	"left"	0.854	1.788	487.682	486.748
488.334	"Auditory_Different"	1	"left"	1.093	1.789	490.123	489.427
490.775	"Auditory_Same"	1	"right"	0.791	1.789	492.564	491.566
493.165	"Auditory_Same"	1	"right"	0.924	1.789	494.954	494.089
500.788	"Visual_Same"	1	"right"	1.478	1.789	502.577	502.266
503.329	"Visual_Same"	1	"right"	0.877	1.789	505.118	504.206
505.87	"Visual_Lure"	1	"left"	0.83	1.789	507.659	506.7
508.394	"Visual_Different"	1	"left"	0.741	1.789	510.183	509.135
510.685	"Visual_Same"	1	"right"	0.983	1.788	512.473	511.668
518.391	"Auditory_Different"	1	"left"	1.359	1.789	520.18	519.75
520.731	"Auditory_Lure"	1	"left"	0.796	1.772	522.503	521.527
523.406	"Auditory_Different"	1	"left"	0.979	1.789	525.195	524.385
525.797	"Auditory_Same"	1	"right"	0.754	1.788	527.585	526.551
528.237	"Auditory_Same"	0	"left"	0.715	1.789	530.026	528.952
530.678	"Auditory_Lure"	1	"left"	0.934	1.788	532.466	531.612
533.202	"Auditory_Lure"	1	"left"	0.81	1.789	534.991	534.012
540.842	"Visual_Lure"	1	"left"	0.75	1.788	542.63	541.592
543.265	"Visual_Lure"	1	"left"	0.792	1.789	545.054	544.057
545.857	"Visual_Same"	1	"right"	0.761	1.788	547.645	546.618
548.197	"Visual_Lure"	1	"left"	0.798	1.789	549.986	548.995
550.888	"Visual_Different"	1	"left"	1.094	1.789	552.677	551.982
558.444	"Auditory_Lure"	1	"left"	0.858	1.772	560.216	559.302
560.868	"Auditory_Lure"	1	"left"	0.676	1.789	562.657	561.544
563.309	"Auditory_Same"	1	"right"	0.666	1.789	565.098	563.975
565.9	"Auditory_Lure"	1	"left"	0.846	1.789	567.689	566.746
568.29	"Auditory_Different"	1	"left"	0.918	1.789	570.079	569.208
575.83	"Visual_Different"	1	"left"	0.846	1.788	577.618	576.676
578.27	"Visual_Same"	1	"right"	0.897	1.789	580.059	579.167
580.861	"Visual_Different"	1	"left"	0.899	1.789	582.65	581.76
583.202	"Visual_Lure"	1	"left"	0.84	1.788	584.99	584.042
585.893	"Visual_Lure"	1	"left"	1.132	1.789	587.682	587.025
588.217	"Visual_Same"	1	"right"	0.894	1.788	590.005	589.111
595.789	"Auditory_Same"	1	"right"	1.144	1.789	597.578	596.933
598.381	"Auditory_Same"	1	"right"	0.908	1.788	600.169	599.289
600.704	"Auditory_Different"	1	"left"	0.774	1.789	602.493	601.478
603.245	"Auditory_Same"	1	"right"	0.878	1.789	605.034	604.123
605.836	"Auditory_Lure"	1	"left"	0.814	1.789	607.625	606.65
613.342	"Visual_Different"	1	"left"	0.716	1.789	615.131	614.058
615.716	"Visual_Same"	1	"right"	0.811	1.788	617.504	616.527
618.357	"Visual_Lure"	1	"left"	0.802	1.789	620.146	619.159
620.898	"Visual_Same"	1	"right"	0.778	1.789	622.687	621.676
623.238	"Visual_Same"	1	"right"	0.917	1.789	625.027	624.155
625.779	"Visual_Lure"	1	"left"	0.807	1.789	627.568	626.586
628.304	"Visual_Lure"	1	"left"	0.954	1.788	630.092	629.258
635.943	"Auditory_Lure"	1	"left"	0.962	1.789	637.732	636.905
638.317	"Auditory_Lure"	1	"left"	0.932	1.788	640.105	639.249
640.707	"Auditory_Different"	1	"left"	0.983	1.789	642.496	641.69
643.399	"Auditory_Same"	1	"right"	1.541	1.788	645.187	644.94
645.739	"Auditory_Lure"	1	"left"	0.835	1.789	647.528	646.574
653.278	"Visual_Same"	1	"right"	0.744	1.789	655.067	654.022
655.719	"Visual_Different"	1	"left"	0.59	1.789	657.508	656.309
658.41	"Visual_Same"	1	"right"	0.747	1.789	660.199	659.157
660.801	"Visual_Lure"	1	"left"	0.794	1.788	662.589	661.595
663.241	"Visual_Lure"	1	"left"	0.731	1.772	665.013	663.972
665.816	"Visual_Different"	1	"left"	0.761	1.788	667.604	666.577
668.156	"Visual_Different"	1	"left"	0.776	1.789	669.945	668.932
675.829	"Auditory_Different"	1	"left"	0.818	1.789	677.618	676.647
678.22	"Auditory_Different"	1	"left"	1.085	1.788	680.008	679.305
680.861	"Auditory_Same"	1	"right"	0.837	1.788	682.649	681.698
683.201	"Auditory_Lure"	1	"left"	0.729	1.789	684.99	683.93
685.792	"Auditory_Different"	1	"left"	0.624	1.789	687.581	686.416
693.331	"Visual_Different"	1	"left"	0.574	1.789	695.12	693.905
695.923	"Visual_Different"	1	"left"	0.607	1.788	697.711	696.53
698.263	"Visual_Lure"	1	"left"	0.798	1.789	700.052	699.061
700.854	"Visual_Different"	1	"left"	0.568	1.789	702.643	701.422
703.278	"Visual_Same"	1	"right"	0.653	1.789	705.067	703.931
710.784	"Auditory_Same"	0	"left"	1.23	1.788	712.572	712.014
713.425	"Auditory_Lure"	1	"left"	0.653	1.789	715.214	714.078
715.866	"Auditory_Same"	1	"right"	0.931	1.788	717.654	716.797
718.239	"Auditory_Different"	1	"left"	0.85	1.789	720.028	719.089
720.78	"Auditory_Different"	1	"left"	0.867	1.789	722.569	721.647
723.321	"Auditory_Lure"	1	"left"	0.805	1.789	725.11	724.126
