onset	duration	trial_type	accuracy	button	response_time	trial_type_less_granular	time_to_offset_alternative_onset	time_to_RT_alternative_onset_or_duration
10.269	0.2	recently_learned_faces_baseline	0	NA	NA	recently_learned_faces_baseline	10.44	NA
11.389	2.507	recently_learned_faces_baseline	1	right	1.335	recently_learned_faces_baseline	13.878	12.724
14.732	2.507	famous_faces_baseline	1	left	0.971	famous_faces_baseline	17.215	15.703
18.326	2.507	famous_faces_baseline	1	right	0.971	famous_faces_baseline	20.804	19.297
21.753	2.507	famous_faces_false_combination	1	right	1.825	famous_faces	24.242	23.578
25.347	2.507	famous_faces_correct_combination	1	left	1.367	famous_faces	27.831	26.714
28.673	2.508	recently_learned_faces_false_combination	1	right	1.184	recently_learned_faces	31.168	29.857
32.217	2.508	recently_learned_faces_false_combination	1	right	1.055	recently_learned_faces	34.706	33.272
35.862	2.507	famous_faces_false_combination	1	right	1.44	famous_faces	38.345	37.302
39.255	2.507	famous_faces_baseline	0	right	1.283	famous_faces_baseline	41.733	40.538
42.682	2.507	recently_learned_faces_baseline	0	right	1.059	recently_learned_faces_baseline	45.171	43.741
46.125	2.508	famous_faces_false_combination	1	right	1.917	famous_faces	48.609	48.042
49.719	2.508	famous_faces_baseline	1	right	1.436	famous_faces_baseline	52.198	51.155
55.453	2.508	famous_faces_baseline	1	right	1.05	famous_faces_baseline	57.939	56.503
58.797	2.507	recently_learned_faces_correct_combination	1	left	1.426	recently_learned_faces	61.276	60.223
62.324	2.507	recently_learned_faces_false_combination	1	right	0.887	recently_learned_faces	64.815	63.211
65.717	2.508	famous_faces_correct_combination	1	left	1.484	famous_faces	68.203	67.201
69.361	2.508	famous_faces_false_combination	1	right	1.063	famous_faces	71.842	70.424
72.788	2.508	recently_learned_faces_false_combination	0	left	1.396	recently_learned_faces	75.28	74.184
76.182	2.507	famous_faces_false_combination	1	right	1.142	famous_faces	78.668	77.324
79.726	2.507	recently_learned_faces_false_combination	1	right	0.941	recently_learned_faces	82.206	80.667
83.303	2.507	recently_learned_faces_false_combination	1	right	1.029	recently_learned_faces	85.795	84.332
86.847	2.507	famous_faces_baseline	1	right	1.008	famous_faces_baseline	89.333	87.855
90.19	2.508	famous_faces_baseline	1	right	1.274	famous_faces_baseline	92.67	91.464
93.768	2.507	famous_faces_false_combination	1	right	1.021	famous_faces	96.259	94.789
97.311	2.508	recently_learned_faces_false_combination	0	left	1.145	recently_learned_faces	99.797	98.456
102.895	2.507	recently_learned_faces_correct_combination	1	left	0.971	recently_learned_faces	105.387	103.866
106.288	2.508	famous_faces_correct_combination	1	left	1.582	famous_faces	108.774	107.87
109.732	2.507	recently_learned_faces_correct_combination	1	left	1.017	recently_learned_faces	112.212	110.749
113.409	2.508	recently_learned_faces_false_combination	1	right	1.16	recently_learned_faces	115.901	114.569
116.803	2.507	recently_learned_faces_correct_combination	1	left	0.846	recently_learned_faces	119.289	117.649
120.196	2.508	famous_faces_correct_combination	1	left	1.481	famous_faces	122.677	121.677
123.874	2.507	famous_faces_correct_combination	1	left	1.233	famous_faces	126.366	125.107
127.267	2.508	recently_learned_faces_correct_combination	1	left	0.97	recently_learned_faces	129.754	128.237
130.811	2.508	famous_faces_baseline	1	left	1.355	famous_faces_baseline	133.293	132.166
134.188	2.507	recently_learned_faces_baseline	1	right	1.131	recently_learned_faces_baseline	136.68	135.319
137.732	2.507	famous_faces_baseline	1	left	1.088	famous_faces_baseline	140.219	138.82
141.276	2.507	famous_faces_correct_combination	1	left	0.93	famous_faces	143.758	142.206
144.602	2.508	recently_learned_faces_correct_combination	1	left	1.051	recently_learned_faces	147.095	145.653
150.453	2.508	famous_faces_baseline	1	right	1.214	famous_faces_baseline	152.936	151.667
153.83	2.524	famous_faces_correct_combination	1	left	0.987	famous_faces	156.324	154.817
157.273	2.508	famous_faces_baseline	1	right	0.852	famous_faces_baseline	159.762	158.125
160.868	2.507	recently_learned_faces_correct_combination	1	left	0.851	recently_learned_faces	163.351	161.719
164.194	2.524	recently_learned_faces_baseline	1	left	1.147	recently_learned_faces_baseline	166.688	165.341
167.838	2.508	recently_learned_faces_correct_combination	1	left	0.663	recently_learned_faces	170.327	168.501
171.232	2.507	recently_learned_faces_correct_combination	1	left	0.861	recently_learned_faces	173.714	172.093
174.659	2.524	recently_learned_faces_correct_combination	1	left	0.987	recently_learned_faces	177.152	175.646
178.253	2.507	famous_faces_false_combination	1	right	1.004	famous_faces	180.741	179.257
181.847	2.507	recently_learned_faces_baseline	1	left	1.249	recently_learned_faces_baseline	184.33	183.096
185.274	2.524	famous_faces_false_combination	1	right	0.928	famous_faces	187.768	186.202
188.818	2.507	famous_faces_false_combination	1	right	1.028	famous_faces	191.306	189.846
192.111	2.507	famous_faces_baseline	1	right	1.231	famous_faces_baseline	194.593	193.342
197.945	2.507	recently_learned_faces_false_combination	1	right	1.222	recently_learned_faces	200.435	199.167
201.338	2.508	famous_faces_false_combination	1	right	1.273	famous_faces	203.823	202.611
204.782	2.507	recently_learned_faces_correct_combination	1	left	0.968	recently_learned_faces	207.261	205.75
208.359	2.508	famous_faces_false_combination	1	right	0.999	famous_faces	210.85	209.358
211.702	2.508	famous_faces_baseline	1	left	1.159	famous_faces_baseline	214.187	212.861
215.347	2.507	recently_learned_faces_false_combination	1	right	2.12	recently_learned_faces	217.826	217.467
218.673	2.524	recently_learned_faces_false_combination	1	right	1.117	recently_learned_faces	221.163	219.79
222.217	2.508	famous_faces_correct_combination	1	left	0.847	famous_faces	224.701	223.064
225.861	2.508	recently_learned_faces_baseline	1	right	1.049	recently_learned_faces_baseline	228.34	226.91
229.238	2.508	famous_faces_baseline	1	right	0.624	famous_faces_baseline	231.728	229.862
232.782	2.507	recently_learned_faces_baseline	0	right	0.921	recently_learned_faces_baseline	235.267	233.703
236.125	2.508	recently_learned_faces_baseline	1	right	0.919	recently_learned_faces_baseline	238.604	237.044
239.803	2.507	recently_learned_faces_false_combination	1	right	1.331	recently_learned_faces	242.293	241.134
245.252	2.508	recently_learned_faces_baseline	1	right	0.934	recently_learned_faces_baseline	247.733	246.186
248.93	2.508	famous_faces_correct_combination	1	left	1.007	famous_faces	251.422	249.937
252.324	2.507	famous_faces_correct_combination	1	left	0.82	famous_faces	254.81	253.144
255.867	2.508	famous_faces_baseline	1	right	0.98	famous_faces_baseline	258.349	256.847
259.244	2.508	recently_learned_faces_correct_combination	1	left	1.101	recently_learned_faces	261.736	260.345
262.688	2.507	recently_learned_faces_correct_combination	1	left	0.912	recently_learned_faces	265.174	263.6
266.332	2.507	famous_faces_correct_combination	1	left	0.974	famous_faces	268.813	267.306
269.859	2.508	famous_faces_false_combination	1	right	0.998	famous_faces	272.351	270.857
273.253	2.507	famous_faces_correct_combination	1	left	0.711	famous_faces	275.739	273.964
276.696	2.508	famous_faces_baseline	1	left	0.923	famous_faces_baseline	279.177	277.619
280.223	2.525	recently_learned_faces_correct_combination	1	left	1.775	recently_learned_faces	282.716	281.998
283.667	2.507	famous_faces_false_combination	1	right	0.991	famous_faces	286.154	284.658
287.261	2.507	recently_learned_faces_correct_combination	1	left	1.194	recently_learned_faces	289.743	288.455
292.945	2.507	recently_learned_faces_correct_combination	1	left	0.868	recently_learned_faces	295.432	293.813
296.388	2.508	famous_faces_false_combination	1	right	1.163	famous_faces	298.87	297.551
299.765	2.507	famous_faces_false_combination	1	right	0.898	famous_faces	302.257	300.663
303.209	2.507	recently_learned_faces_baseline	1	right	0.734	recently_learned_faces_baseline	305.695	303.943
306.803	2.507	famous_faces_correct_combination	1	left	1.193	famous_faces	309.284	307.996
310.33	2.524	recently_learned_faces_baseline	1	left	1.41	recently_learned_faces_baseline	312.823	311.74
313.673	2.508	famous_faces_correct_combination	1	left	0.813	famous_faces	316.16	314.486
317.267	2.508	recently_learned_faces_correct_combination	1	left	1.5	recently_learned_faces	319.749	318.767
320.694	2.524	recently_learned_faces_false_combination	1	right	1.023	recently_learned_faces	323.187	321.717
324.338	2.508	recently_learned_faces_false_combination	1	right	0.895	recently_learned_faces	326.826	325.233
327.631	2.508	recently_learned_faces_correct_combination	1	left	1.526	recently_learned_faces	330.113	329.157
331.309	2.524	recently_learned_faces_baseline	1	right	0.97	recently_learned_faces_baseline	333.802	332.279
334.652	2.508	famous_faces_correct_combination	1	left	0.923	famous_faces	337.139	335.575
340.236	2.524	recently_learned_faces_baseline	1	left	0.979	recently_learned_faces_baseline	342.73	341.215
343.88	2.507	recently_learned_faces_baseline	1	right	0.729	recently_learned_faces_baseline	346.369	344.609
347.323	2.508	famous_faces_false_combination	1	right	0.949	famous_faces	349.807	348.272
350.917	2.508	recently_learned_faces_correct_combination	1	left	0.713	recently_learned_faces	353.396	351.63
354.244	2.507	famous_faces_false_combination	1	right	0.933	famous_faces	356.733	355.177
357.888	2.508	recently_learned_faces_baseline	1	right	1.422	recently_learned_faces_baseline	360.372	359.31
361.332	2.507	recently_learned_faces_baseline	1	left	1.573	recently_learned_faces_baseline	363.81	362.905
364.759	2.507	recently_learned_faces_false_combination	1	right	1.135	recently_learned_faces	367.248	365.894
368.152	2.508	famous_faces_false_combination	1	right	1.109	famous_faces	370.636	369.261
371.679	2.525	famous_faces_correct_combination	1	left	0.896	famous_faces	374.174	372.575
375.324	2.507	famous_faces_false_combination	1	right	0.946	famous_faces	377.813	376.27
378.617	2.507	recently_learned_faces_baseline	1	right	0.979	recently_learned_faces_baseline	381.1	379.596
382.261	2.507	recently_learned_faces_false_combination	0	left	1.23	recently_learned_faces	384.739	383.491
387.744	2.507	recently_learned_faces_baseline	1	left	0.951	recently_learned_faces_baseline	390.229	388.695
391.288	2.507	famous_faces_false_combination	1	right	0.941	famous_faces	393.767	392.229
394.815	2.507	famous_faces_correct_combination	1	left	0.844	famous_faces	397.306	395.659
398.359	2.507	recently_learned_faces_baseline	1	right	0.969	recently_learned_faces_baseline	400.845	399.328
401.903	2.507	recently_learned_faces_correct_combination	1	left	1.271	recently_learned_faces	404.383	403.174
405.229	2.508	famous_faces_correct_combination	1	left	0.951	famous_faces	407.72	406.18
408.773	2.508	recently_learned_faces_false_combination	1	right	1.821	recently_learned_faces	411.259	410.594
412.317	2.508	famous_faces_correct_combination	1	left	2.328	famous_faces	414.798	414.645
415.644	2.507	famous_faces_false_combination	1	right	0.903	famous_faces	418.135	416.547
419.338	2.508	famous_faces_baseline	1	right	1.049	famous_faces_baseline	421.824	420.387
422.782	2.507	famous_faces_correct_combination	1	left	0.948	famous_faces	425.262	423.73
426.209	2.507	famous_faces_baseline	1	right	0.943	famous_faces_baseline	428.7	427.152
429.602	2.507	famous_faces_baseline	1	left	0.998	famous_faces_baseline	432.088	430.6
435.386	2.524	recently_learned_faces_baseline	1	left	0.704	recently_learned_faces_baseline	437.879	436.09
438.729	2.508	recently_learned_faces_false_combination	1	right	1.496	recently_learned_faces	441.216	440.225
442.323	2.508	recently_learned_faces_correct_combination	1	left	1.032	recently_learned_faces	444.805	443.355
445.75	2.524	recently_learned_faces_baseline	1	left	1.003	recently_learned_faces_baseline	448.243	446.753
449.394	2.508	recently_learned_faces_false_combination	1	right	1.463	recently_learned_faces	451.882	450.857
452.788	2.507	recently_learned_faces_baseline	1	left	1.118	recently_learned_faces_baseline	455.27	453.906
456.215	2.524	recently_learned_faces_baseline	1	left	0.7	recently_learned_faces_baseline	458.708	456.915
459.658	2.508	famous_faces_baseline	1	left	0.915	famous_faces_baseline	462.146	460.573
463.353	2.507	famous_faces_correct_combination	1	left	1.022	famous_faces	465.835	464.375
466.779	2.525	famous_faces_baseline	1	right	0.655	famous_faces_baseline	469.273	467.434
470.223	2.508	famous_faces_false_combination	1	right	1.245	famous_faces	472.711	471.468
473.617	2.507	famous_faces_false_combination	1	right	0.857	famous_faces	476.099	474.474
477.144	2.524	recently_learned_faces_baseline	1	left	0.718	recently_learned_faces_baseline	479.637	477.862
482.894	2.508	famous_faces_baseline	1	right	0.913	famous_faces_baseline	485.378	483.807
486.271	2.524	recently_learned_faces_correct_combination	1	left	1.516	recently_learned_faces	488.765	487.787
489.815	2.507	recently_learned_faces_baseline	1	left	0.803	recently_learned_faces_baseline	492.304	490.618
493.208	2.508	recently_learned_faces_correct_combination	1	left	1.151	recently_learned_faces	495.692	494.359
496.903	2.507	famous_faces_baseline	1	left	1.09	famous_faces_baseline	499.381	497.993
500.33	2.507	recently_learned_faces_false_combination	1	right	0.95	recently_learned_faces	502.819	501.28
503.873	2.508	famous_faces_false_combination	1	right	1.028	famous_faces	506.357	504.901
507.267	2.507	recently_learned_faces_baseline	1	left	1.277	recently_learned_faces_baseline	509.745	508.544
510.694	2.507	famous_faces_baseline	1	right	1.204	famous_faces_baseline	513.183	511.898
514.137	2.508	recently_learned_faces_false_combination	1	right	1.201	recently_learned_faces	516.621	515.338
517.782	2.507	famous_faces_baseline	1	left	0.838	famous_faces_baseline	520.26	518.62
521.309	2.507	famous_faces_false_combination	1	right	1.067	famous_faces	523.798	522.376
524.652	2.507	recently_learned_faces_false_combination	1	right	1.222	recently_learned_faces	527.135	525.874
530.269	2.474	famous_faces_correct_combination	1	left	0.97	famous_faces	532.725	531.239
533.779	2.508	recently_learned_faces_false_combination	0	left	1.423	recently_learned_faces	536.263	535.202
537.323	2.508	recently_learned_faces_baseline	1	right	1.099	recently_learned_faces_baseline	539.802	538.422
540.85	2.508	recently_learned_faces_correct_combination	1	left	1.074	recently_learned_faces	543.341	541.924
544.394	2.508	famous_faces_correct_combination	1	left	0.761	famous_faces	546.879	545.155
547.737	2.508	famous_faces_correct_combination	1	left	0.821	famous_faces	550.216	548.558
551.265	2.507	recently_learned_faces_false_combination	1	right	1.232	recently_learned_faces	553.755	552.497
554.859	2.507	famous_faces_baseline	1	left	0.944	famous_faces_baseline	557.344	555.803
558.302	2.508	famous_faces_false_combination	1	right	0.879	famous_faces	560.782	559.181
561.629	2.507	famous_faces_false_combination	1	right	1.216	famous_faces	564.119	562.845
565.173	2.507	famous_faces_false_combination	1	right	0.815	famous_faces	567.657	565.988
568.717	2.507	recently_learned_faces_false_combination	1	right	1.817	recently_learned_faces	571.196	570.534
572.244	2.507	recently_learned_faces_false_combination	1	right	1.113	recently_learned_faces	574.735	573.357
577.894	2.508	recently_learned_faces_baseline	1	left	1.047	recently_learned_faces_baseline	580.375	578.941
581.421	2.508	recently_learned_faces_baseline	1	right	0.7	recently_learned_faces_baseline	583.913	582.121
584.765	2.507	recently_learned_faces_false_combination	1	right	0.918	recently_learned_faces	587.25	585.683
588.308	2.508	famous_faces_correct_combination	1	left	0.974	famous_faces	590.789	589.282
591.685	2.508	recently_learned_faces_baseline	1	right	0.968	recently_learned_faces_baseline	594.177	592.653
595.329	2.508	famous_faces_correct_combination	1	left	0.825	famous_faces	597.816	596.154
598.673	2.507	famous_faces_baseline	1	left	0.904	famous_faces_baseline	601.153	599.577
602.2	2.507	recently_learned_faces_false_combination	1	right	0.825	recently_learned_faces	604.691	603.025
605.744	2.507	recently_learned_faces_false_combination	1	right	0.896	recently_learned_faces	608.23	606.64
609.338	2.507	famous_faces_baseline	1	right	1.267	famous_faces_baseline	611.819	610.605
612.765	2.507	famous_faces_baseline	1	right	0.705	famous_faces_baseline	615.257	613.47
616.309	2.507	recently_learned_faces_baseline	1	left	0.97	recently_learned_faces_baseline	618.795	617.279
619.702	2.508	famous_faces_correct_combination	1	left	1.007	famous_faces	622.183	620.709
625.703	2.24	famous_faces_correct_combination	1	left	0.801	famous_faces	627.924	626.504
628.729	2.507	famous_faces_false_combination	1	right	1.191	famous_faces	631.211	629.92
632.356	2.525	famous_faces_correct_combination	1	left	1.015	famous_faces	634.85	633.371
635.8	2.507	famous_faces_false_combination	1	right	1.075	famous_faces	638.288	636.875
639.244	2.507	recently_learned_faces_false_combination	1	right	0.953	recently_learned_faces	641.726	640.197
642.771	2.524	famous_faces_false_combination	1	right	0.852	famous_faces	645.265	643.623
646.214	2.508	famous_faces_false_combination	1	right	0.834	famous_faces	648.703	647.048
649.859	2.507	recently_learned_faces_correct_combination	1	left	0.877	recently_learned_faces	652.342	650.736
653.285	2.525	famous_faces_baseline	1	left	0.932	famous_faces_baseline	655.78	654.217
656.629	2.507	recently_learned_faces_correct_combination	1	left	1.93	recently_learned_faces	659.117	658.559
660.223	2.507	recently_learned_faces_false_combination	1	right	1.251	recently_learned_faces	662.706	661.474
663.6	2.524	famous_faces_baseline	1	right	0.875	famous_faces_baseline	666.094	664.475
667.143	2.508	famous_faces_false_combination	1	right	0.947	famous_faces	669.632	668.09
672.894	2.507	recently_learned_faces_correct_combination	1	left	1.045	recently_learned_faces	675.373	673.939
676.421	2.508	recently_learned_faces_baseline	0	right	0.757	recently_learned_faces_baseline	678.911	677.178
679.815	2.507	recently_learned_faces_correct_combination	1	left	0.785	recently_learned_faces	682.299	680.6
683.258	2.508	famous_faces_false_combination	1	right	0.915	famous_faces	685.737	684.173
686.685	2.508	recently_learned_faces_correct_combination	1	left	0.9	recently_learned_faces	689.175	687.585
690.379	2.508	famous_faces_baseline	1	left	0.807	famous_faces_baseline	692.864	691.186
693.773	2.507	famous_faces_baseline	1	left	0.672	famous_faces_baseline	696.252	694.445
697.3	2.507	famous_faces_correct_combination	1	left	0.943	famous_faces	699.791	698.243
700.643	2.508	recently_learned_faces_false_combination	1	right	1.066	recently_learned_faces	703.128	701.709
704.187	2.508	recently_learned_faces_correct_combination	1	left	0.831	recently_learned_faces	706.666	705.018
707.614	2.508	recently_learned_faces_correct_combination	1	left	0.863	recently_learned_faces	710.104	708.477
711.258	2.508	famous_faces_baseline	1	left	0.859	famous_faces_baseline	713.743	712.117
714.802	2.508	recently_learned_faces_baseline	1	right	0.791	recently_learned_faces_baseline	717.281	715.593
720.285	2.508	famous_faces_false_combination	1	right	0.785	famous_faces	722.77	721.07
723.729	2.507	famous_faces_baseline	1	left	1.332	famous_faces_baseline	726.208	725.061
727.406	2.508	recently_learned_faces_false_combination	1	right	1.212	recently_learned_faces	729.897	728.618
730.8	2.507	famous_faces_correct_combination	0	right	0.955	famous_faces	733.285	731.755
734.344	2.507	recently_learned_faces_correct_combination	1	left	1.067	recently_learned_faces	736.824	735.411
737.871	2.507	recently_learned_faces_correct_combination	1	left	0.686	recently_learned_faces	740.362	738.557
741.315	2.507	famous_faces_correct_combination	1	left	0.956	famous_faces	743.8	742.271
744.708	2.507	recently_learned_faces_correct_combination	1	left	0.886	recently_learned_faces	747.187	745.594
748.135	2.507	recently_learned_faces_false_combination	1	right	0.896	recently_learned_faces	750.625	749.031
751.729	2.507	recently_learned_faces_baseline	1	right	0.719	recently_learned_faces_baseline	754.214	752.448
755.122	2.508	recently_learned_faces_correct_combination	1	left	1.709	recently_learned_faces	757.602	756.831
758.7	2.507	recently_learned_faces_false_combination	1	right	1.012	recently_learned_faces	761.191	759.712
762.294	2.507	recently_learned_faces_correct_combination	1	left	0.952	recently_learned_faces	764.78	763.246
767.827	2.524	recently_learned_faces_baseline	1	right	0.875	recently_learned_faces_baseline	770.32	768.702
771.27	2.508	famous_faces_false_combination	1	right	0.948	famous_faces	773.758	772.218
774.714	2.508	famous_faces_correct_combination	1	left	0.914	famous_faces	777.196	775.628
778.342	2.524	recently_learned_faces_false_combination	1	right	1.416	recently_learned_faces	780.835	779.758
781.885	2.508	famous_faces_baseline	1	left	1.149	famous_faces_baseline	784.373	783.034
785.229	2.507	famous_faces_correct_combination	1	left	1.028	famous_faces	787.71	786.257
788.656	2.507	famous_faces_correct_combination	1	left	0.857	famous_faces	791.148	789.513
792.3	2.507	famous_faces_correct_combination	1	left	0.723	famous_faces	794.787	793.023
