"onset"	"trial_type"	"accuracy"	"button"	"response_time"	"duration"	"trial_type_less_granular"	"time_to_offset_alternative_onset"	"time_to_RT_alternative_onset_or_duration"
10.327	"recently_learned_faces_baseline"	0	NA	NA	0.133	"recently_learned_faces_baseline"	10.44	NA
11.296	"recently_learned_faces_baseline"	0	NA	NA	2.508	"recently_learned_faces_baseline"	13.777	NA
14.723	"famous_faces_baseline"	1	"left"	1.468	2.508	"famous_faces_baseline"	17.215	16.191
18.367	"famous_faces_baseline"	1	"right"	0.837	2.508	"famous_faces_baseline"	20.854	19.204
21.811	"famous_faces_false_combination"	1	"right"	1.584	2.507	"famous_faces"	24.292	23.395
25.238	"famous_faces_correct_combination"	1	"left"	1.072	2.507	"famous_faces"	27.73	26.31
28.882	"recently_learned_faces_false_combination"	1	"right"	1.186	2.508	"recently_learned_faces"	31.369	30.068
32.326	"recently_learned_faces_false_combination"	1	"right"	1.338	2.507	"recently_learned_faces"	34.807	33.664
35.753	"famous_faces_false_combination"	1	"right"	1.048	2.507	"famous_faces"	38.245	36.801
39.146	"famous_faces_baseline"	1	"left"	1.149	2.508	"famous_faces_baseline"	41.633	40.295
42.84	"recently_learned_faces_baseline"	1	"left"	1.149	2.508	"recently_learned_faces_baseline"	45.322	43.989
46.117	"famous_faces_false_combination"	1	"right"	0.859	2.507	"famous_faces"	48.609	46.976
49.761	"famous_faces_baseline"	1	"right"	1.72	2.508	"famous_faces_baseline"	52.248	51.481
55.344	"famous_faces_baseline"	1	"right"	0.791	2.525	"famous_faces_baseline"	57.839	56.135
58.788	"recently_learned_faces_correct_combination"	1	"left"	0.907	2.507	"recently_learned_faces"	61.277	59.695
62.432	"recently_learned_faces_false_combination"	1	"right"	0.913	2.508	"recently_learned_faces"	64.916	63.345
65.876	"famous_faces_correct_combination"	1	"left"	1.158	2.507	"famous_faces"	68.354	67.034
69.202	"famous_faces_false_combination"	1	"right"	0.817	2.508	"famous_faces"	71.691	70.019
72.897	"recently_learned_faces_false_combination"	0	"left"	1.767	2.507	"recently_learned_faces"	75.38	74.664
76.173	"famous_faces_false_combination"	1	"right"	1.204	2.508	"famous_faces"	78.667	77.377
79.767	"recently_learned_faces_false_combination"	1	"right"	1.259	2.508	"recently_learned_faces"	82.256	81.026
83.311	"recently_learned_faces_false_combination"	0	"left"	1.377	2.508	"recently_learned_faces"	85.795	84.688
86.688	"famous_faces_baseline"	1	"right"	1.403	2.507	"famous_faces_baseline"	89.182	88.091
90.332	"famous_faces_baseline"	1	"right"	0.906	2.508	"famous_faces_baseline"	92.821	91.238
93.776	"famous_faces_false_combination"	1	"right"	1.165	2.507	"famous_faces"	96.259	94.941
97.102	"recently_learned_faces_false_combination"	1	"right"	1.559	2.508	"recently_learned_faces"	99.596	98.661
102.903	"recently_learned_faces_correct_combination"	1	"left"	1.236	2.508	"recently_learned_faces"	105.388	104.139
106.297	"famous_faces_correct_combination"	1	"left"	1.495	2.507	"famous_faces"	108.775	107.792
109.824	"recently_learned_faces_correct_combination"	1	"left"	0.955	2.507	"recently_learned_faces"	112.314	110.779
113.217	"recently_learned_faces_false_combination"	1	"right"	1.042	2.508	"recently_learned_faces"	115.702	114.259
116.912	"recently_learned_faces_correct_combination"	1	"left"	0.809	2.507	"recently_learned_faces"	119.391	117.721
120.188	"famous_faces_correct_combination"	1	"left"	0.919	2.508	"famous_faces"	122.678	121.107
123.882	"famous_faces_correct_combination"	1	"left"	0.971	2.508	"famous_faces"	126.367	124.853
127.326	"recently_learned_faces_correct_combination"	1	"left"	0.78	2.507	"recently_learned_faces"	129.805	128.106
130.753	"famous_faces_baseline"	1	"left"	1.136	2.507	"famous_faces_baseline"	133.243	131.889
134.196	"recently_learned_faces_baseline"	1	"right"	1.084	2.508	"recently_learned_faces_baseline"	136.681	135.28
137.841	"famous_faces_baseline"	1	"left"	1.446	2.507	"famous_faces_baseline"	140.32	139.287
141.117	"famous_faces_correct_combination"	1	"left"	0.827	2.508	"famous_faces"	143.607	141.944
144.711	"recently_learned_faces_correct_combination"	1	"left"	0.946	2.508	"recently_learned_faces"	147.196	145.657
150.295	"famous_faces_baseline"	1	"right"	1.242	2.507	"famous_faces_baseline"	152.786	151.537
153.939	"famous_faces_correct_combination"	1	"left"	1.124	2.507	"famous_faces"	156.425	155.063
157.382	"famous_faces_baseline"	1	"right"	0.819	2.508	"famous_faces_baseline"	159.863	158.201
160.809	"recently_learned_faces_correct_combination"	1	"left"	0.79	2.508	"recently_learned_faces"	163.301	161.599
164.203	"recently_learned_faces_baseline"	1	"left"	0.82	2.507	"recently_learned_faces_baseline"	166.689	165.023
167.797	"recently_learned_faces_correct_combination"	1	"left"	0.757	2.507	"recently_learned_faces"	170.278	168.554
171.224	"recently_learned_faces_correct_combination"	1	"left"	0.849	2.507	"recently_learned_faces"	173.716	172.073
174.818	"recently_learned_faces_correct_combination"	1	"left"	0.943	2.507	"recently_learned_faces"	177.305	175.761
178.161	"famous_faces_false_combination"	0	"left"	0.739	2.508	"famous_faces"	180.642	178.9
181.839	"recently_learned_faces_baseline"	1	"left"	0.877	2.507	"recently_learned_faces_baseline"	184.331	182.716
185.282	"famous_faces_false_combination"	1	"right"	0.918	2.508	"famous_faces"	187.769	186.2
188.626	"famous_faces_false_combination"	1	"right"	1.08	2.507	"famous_faces"	191.106	189.706
192.303	"famous_faces_baseline"	1	"right"	1.342	2.508	"famous_faces_baseline"	194.795	193.645
197.853	"recently_learned_faces_false_combination"	1	"right"	1.141	2.508	"recently_learned_faces"	200.336	198.994
201.23	"famous_faces_false_combination"	1	"right"	1.202	2.524	"famous_faces"	203.724	202.432
204.874	"recently_learned_faces_correct_combination"	1	"left"	0.902	2.508	"recently_learned_faces"	207.363	205.776
208.268	"famous_faces_false_combination"	1	"right"	1.105	2.507	"famous_faces"	210.75	209.373
211.895	"famous_faces_baseline"	1	"left"	1.092	2.508	"famous_faces_baseline"	214.389	212.987
215.188	"recently_learned_faces_false_combination"	1	"right"	1.253	2.508	"recently_learned_faces"	217.676	216.441
218.883	"recently_learned_faces_false_combination"	1	"right"	1.152	2.507	"recently_learned_faces"	221.365	220.035
222.259	"famous_faces_correct_combination"	1	"left"	0.833	2.525	"famous_faces"	224.753	223.092
225.703	"recently_learned_faces_baseline"	1	"right"	0.828	2.508	"recently_learned_faces_baseline"	228.191	226.531
229.297	"famous_faces_baseline"	1	"right"	0.695	2.508	"famous_faces_baseline"	231.78	229.992
232.674	"recently_learned_faces_baseline"	1	"left"	1.062	2.524	"recently_learned_faces_baseline"	235.167	233.736
236.318	"recently_learned_faces_baseline"	1	"right"	0.877	2.508	"recently_learned_faces_baseline"	238.806	237.195
239.762	"recently_learned_faces_false_combination"	1	"right"	1.602	2.507	"recently_learned_faces"	242.244	241.364
245.295	"recently_learned_faces_baseline"	1	"right"	0.969	2.507	"recently_learned_faces_baseline"	247.784	246.264
248.939	"famous_faces_correct_combination"	1	"left"	0.978	2.508	"famous_faces"	251.423	249.917
252.383	"famous_faces_correct_combination"	1	"left"	0.771	2.507	"famous_faces"	254.861	253.154
255.709	"famous_faces_baseline"	1	"right"	0.799	2.508	"famous_faces_baseline"	258.198	256.508
259.303	"recently_learned_faces_correct_combination"	0	"right"	1.396	2.508	"recently_learned_faces"	261.787	260.699
262.847	"recently_learned_faces_correct_combination"	1	"left"	1.286	2.508	"recently_learned_faces"	265.326	264.133
266.374	"famous_faces_correct_combination"	1	"left"	0.921	2.508	"famous_faces"	268.864	267.295
269.668	"famous_faces_false_combination"	1	"right"	1.255	2.507	"famous_faces"	272.151	270.923
273.195	"famous_faces_correct_combination"	1	"left"	0.93	2.524	"famous_faces"	275.689	274.125
276.739	"famous_faces_baseline"	1	"left"	1.129	2.507	"famous_faces_baseline"	279.228	277.868
280.333	"recently_learned_faces_correct_combination"	1	"left"	0.795	2.507	"recently_learned_faces"	282.817	281.128
283.626	"famous_faces_false_combination"	1	"right"	0.924	2.507	"famous_faces"	286.104	284.55
287.203	"recently_learned_faces_correct_combination"	0	"right"	1.993	2.508	"recently_learned_faces"	289.693	289.196
292.853	"recently_learned_faces_correct_combination"	1	"left"	0.94	2.508	"recently_learned_faces"	295.334	293.793
296.381	"famous_faces_false_combination"	1	"right"	1.088	2.507	"famous_faces"	298.873	297.469
299.925	"famous_faces_false_combination"	1	"right"	0.983	2.507	"famous_faces"	302.411	300.908
303.218	"recently_learned_faces_baseline"	1	"right"	0.877	2.507	"recently_learned_faces_baseline"	305.698	304.095
306.745	"famous_faces_correct_combination"	1	"left"	0.98	2.507	"famous_faces"	309.236	307.725
310.339	"recently_learned_faces_baseline"	1	"left"	1.224	2.507	"recently_learned_faces_baseline"	312.825	311.563
313.883	"famous_faces_correct_combination"	1	"left"	1.379	2.507	"famous_faces"	316.363	315.262
317.26	"recently_learned_faces_correct_combination"	1	"left"	0.849	2.507	"recently_learned_faces"	319.751	318.109
320.653	"recently_learned_faces_false_combination"	1	"right"	0.969	2.508	"recently_learned_faces"	323.139	321.622
324.197	"recently_learned_faces_false_combination"	1	"right"	1.092	2.508	"recently_learned_faces"	326.677	325.289
327.825	"recently_learned_faces_correct_combination"	1	"left"	1.062	2.507	"recently_learned_faces"	330.316	328.887
331.118	"recently_learned_faces_baseline"	1	"right"	1.076	2.507	"recently_learned_faces_baseline"	333.603	332.194
334.762	"famous_faces_correct_combination"	1	"left"	1.045	2.507	"famous_faces"	337.242	335.807
340.345	"recently_learned_faces_baseline"	1	"left"	0.931	2.508	"recently_learned_faces_baseline"	342.833	341.276
343.889	"recently_learned_faces_baseline"	1	"right"	0.842	2.508	"recently_learned_faces_baseline"	346.372	344.731
347.216	"famous_faces_false_combination"	1	"right"	1.06	2.507	"famous_faces"	349.709	348.276
350.76	"recently_learned_faces_correct_combination"	1	"left"	0.804	2.507	"recently_learned_faces"	353.247	351.564
354.404	"famous_faces_false_combination"	1	"right"	1.145	2.507	"famous_faces"	356.886	355.549
357.68	"recently_learned_faces_baseline"	1	"right"	1.188	2.508	"recently_learned_faces_baseline"	360.173	358.868
361.325	"recently_learned_faces_baseline"	1	"left"	0.988	2.507	"recently_learned_faces_baseline"	363.812	362.313
364.768	"recently_learned_faces_false_combination"	1	"right"	0.984	2.508	"recently_learned_faces"	367.25	365.752
368.346	"famous_faces_false_combination"	1	"right"	0.968	2.507	"famous_faces"	370.839	369.314
371.689	"famous_faces_correct_combination"	1	"left"	1.058	2.507	"famous_faces"	374.176	372.747
375.132	"famous_faces_false_combination"	1	"right"	1.08	2.508	"famous_faces"	377.614	376.212
378.66	"recently_learned_faces_baseline"	1	"right"	0.925	2.507	"recently_learned_faces_baseline"	381.152	379.585
382.254	"recently_learned_faces_false_combination"	0	"left"	1.926	2.507	"recently_learned_faces"	384.741	384.18
387.737	"recently_learned_faces_baseline"	1	"left"	0.868	2.524	"recently_learned_faces_baseline"	390.231	388.605
391.281	"famous_faces_false_combination"	1	"right"	0.939	2.507	"famous_faces"	393.769	392.22
394.875	"famous_faces_correct_combination"	1	"left"	0.901	2.507	"famous_faces"	397.358	395.776
398.402	"recently_learned_faces_baseline"	1	"right"	0.874	2.507	"recently_learned_faces_baseline"	400.896	399.276
401.795	"recently_learned_faces_correct_combination"	1	"left"	1.436	2.508	"recently_learned_faces"	404.284	403.231
405.339	"famous_faces_correct_combination"	0	"right"	0.722	2.508	"famous_faces"	407.823	406.061
408.716	"recently_learned_faces_false_combination"	1	"right"	1.166	2.524	"recently_learned_faces"	411.21	409.882
412.16	"famous_faces_correct_combination"	1	"left"	0.877	2.507	"famous_faces"	414.648	413.037
415.854	"famous_faces_false_combination"	1	"right"	1.059	2.507	"famous_faces"	418.337	416.913
419.231	"famous_faces_baseline"	1	"right"	1.18	2.524	"famous_faces_baseline"	421.725	420.411
422.624	"famous_faces_correct_combination"	1	"left"	0.894	2.508	"famous_faces"	425.113	423.518
426.319	"famous_faces_baseline"	1	"right"	0.923	2.507	"famous_faces_baseline"	428.802	427.242
429.745	"famous_faces_baseline"	1	"left"	1.069	2.525	"famous_faces_baseline"	432.24	430.814
435.346	"recently_learned_faces_baseline"	1	"left"	0.835	2.507	"recently_learned_faces_baseline"	437.831	436.181
438.94	"recently_learned_faces_false_combination"	0	"left"	0.81	2.507	"recently_learned_faces"	441.42	439.75
442.216	"recently_learned_faces_correct_combination"	1	"left"	1.216	2.508	"recently_learned_faces"	444.707	443.432
445.86	"recently_learned_faces_baseline"	1	"left"	1.176	2.508	"recently_learned_faces_baseline"	448.346	447.036
449.254	"recently_learned_faces_false_combination"	1	"right"	1.799	2.507	"recently_learned_faces"	451.733	451.053
452.881	"recently_learned_faces_baseline"	1	"left"	0.926	2.508	"recently_learned_faces_baseline"	455.372	453.807
456.275	"recently_learned_faces_baseline"	1	"left"	1.012	2.507	"recently_learned_faces_baseline"	458.76	457.287
459.819	"famous_faces_baseline"	1	"left"	0.865	2.507	"famous_faces_baseline"	462.299	460.684
463.195	"famous_faces_correct_combination"	1	"left"	0.829	2.508	"famous_faces"	465.686	464.024
466.639	"famous_faces_baseline"	1	"right"	0.807	2.507	"famous_faces_baseline"	469.124	467.446
470.333	"famous_faces_false_combination"	1	"right"	1.169	2.508	"famous_faces"	472.813	471.502
473.71	"famous_faces_false_combination"	1	"right"	0.854	2.508	"famous_faces"	476.201	474.564
477.254	"recently_learned_faces_baseline"	1	"left"	0.775	2.507	"recently_learned_faces_baseline"	479.74	478.029
482.737	"famous_faces_baseline"	1	"right"	0.993	2.507	"famous_faces_baseline"	485.228	483.73
486.381	"recently_learned_faces_correct_combination"	1	"left"	1.21	2.508	"recently_learned_faces"	488.867	487.591
489.925	"recently_learned_faces_baseline"	1	"left"	0.907	2.508	"recently_learned_faces_baseline"	492.405	490.832
493.252	"recently_learned_faces_correct_combination"	1	"left"	1.193	2.507	"recently_learned_faces"	495.742	494.445
496.796	"famous_faces_baseline"	1	"left"	1.091	2.507	"famous_faces_baseline"	499.281	497.887
500.39	"recently_learned_faces_false_combination"	1	"right"	1.024	2.507	"recently_learned_faces"	502.87	501.414
503.766	"famous_faces_false_combination"	1	"right"	0.959	2.508	"famous_faces"	506.258	504.725
507.16	"recently_learned_faces_baseline"	1	"left"	1.005	2.507	"recently_learned_faces_baseline"	509.646	508.165
510.704	"famous_faces_baseline"	1	"right"	0.767	2.507	"famous_faces_baseline"	513.184	511.471
514.281	"recently_learned_faces_false_combination"	1	"right"	1.328	2.508	"recently_learned_faces"	516.773	515.609
517.624	"famous_faces_baseline"	1	"left"	0.924	2.508	"famous_faces_baseline"	520.11	518.548
521.219	"famous_faces_false_combination"	1	"right"	1.021	2.507	"famous_faces"	523.699	522.24
524.645	"recently_learned_faces_false_combination"	1	"right"	1.276	2.508	"recently_learned_faces"	527.137	525.921
530.296	"famous_faces_correct_combination"	1	"left"	0.986	2.507	"famous_faces"	532.777	531.282
533.723	"recently_learned_faces_false_combination"	0	"left"	1.318	2.507	"recently_learned_faces"	536.215	535.041
537.367	"recently_learned_faces_baseline"	1	"right"	0.997	2.507	"recently_learned_faces_baseline"	539.854	538.364
540.81	"recently_learned_faces_correct_combination"	1	"left"	1.491	2.508	"recently_learned_faces"	543.292	542.301
544.388	"famous_faces_correct_combination"	1	"left"	1.189	2.507	"famous_faces"	546.881	545.577
547.781	"famous_faces_correct_combination"	1	"left"	0.843	2.508	"famous_faces"	550.269	548.624
551.225	"recently_learned_faces_false_combination"	1	"right"	1.327	2.507	"recently_learned_faces"	553.707	552.552
554.852	"famous_faces_baseline"	1	"left"	0.95	2.524	"famous_faces_baseline"	557.346	555.802
558.145	"famous_faces_false_combination"	1	"right"	0.932	2.508	"famous_faces"	560.633	559.077
561.79	"famous_faces_false_combination"	1	"right"	0.958	2.507	"famous_faces"	564.272	562.748
565.317	"famous_faces_false_combination"	1	"right"	1.185	2.524	"famous_faces"	567.81	566.502
568.71	"recently_learned_faces_false_combination"	1	"right"	1.098	2.508	"recently_learned_faces"	571.198	569.808
572.154	"recently_learned_faces_false_combination"	0	"left"	0.831	2.507	"recently_learned_faces"	574.636	572.985
577.888	"recently_learned_faces_baseline"	1	"left"	0.932	2.507	"recently_learned_faces_baseline"	580.377	578.82
581.331	"recently_learned_faces_baseline"	1	"right"	1.015	2.508	"recently_learned_faces_baseline"	583.815	582.346
584.775	"recently_learned_faces_false_combination"	1	"right"	1.218	2.507	"recently_learned_faces"	587.253	585.993
588.202	"famous_faces_correct_combination"	1	"left"	0.858	2.507	"famous_faces"	590.691	589.06
591.896	"recently_learned_faces_baseline"	1	"right"	0.85	2.508	"recently_learned_faces_baseline"	594.38	592.746
595.29	"famous_faces_correct_combination"	1	"left"	0.917	2.507	"famous_faces"	597.768	596.207
598.666	"famous_faces_baseline"	1	"left"	1.178	2.508	"famous_faces_baseline"	601.156	599.844
602.361	"recently_learned_faces_false_combination"	1	"right"	1.097	2.507	"recently_learned_faces"	604.845	603.458
605.804	"recently_learned_faces_false_combination"	1	"right"	1.061	2.508	"recently_learned_faces"	608.283	606.865
609.181	"famous_faces_baseline"	1	"right"	0.961	2.508	"famous_faces_baseline"	611.67	610.142
612.775	"famous_faces_baseline"	1	"right"	0.982	2.508	"famous_faces_baseline"	615.259	613.757
616.152	"recently_learned_faces_baseline"	1	"left"	0.848	2.524	"recently_learned_faces_baseline"	618.646	617
619.796	"famous_faces_correct_combination"	1	"left"	0.81	2.508	"famous_faces"	622.285	620.606
625.346	"famous_faces_correct_combination"	1	"left"	1.101	2.508	"famous_faces"	627.825	626.447
628.873	"famous_faces_false_combination"	1	"right"	0.876	2.508	"famous_faces"	631.364	629.749
632.267	"famous_faces_correct_combination"	1	"left"	0.681	2.507	"famous_faces"	634.751	632.948
635.71	"famous_faces_false_combination"	1	"right"	0.94	2.508	"famous_faces"	638.189	636.65
639.388	"recently_learned_faces_false_combination"	1	"right"	1.205	2.507	"recently_learned_faces"	641.878	640.593
642.731	"famous_faces_false_combination"	1	"right"	1.011	2.508	"famous_faces"	645.215	643.742
646.275	"famous_faces_false_combination"	1	"right"	1.001	2.508	"famous_faces"	648.754	647.276
649.652	"recently_learned_faces_correct_combination"	1	"left"	1.196	2.507	"recently_learned_faces"	652.142	650.848
653.296	"famous_faces_baseline"	1	"left"	0.99	2.508	"famous_faces_baseline"	655.781	654.286
656.84	"recently_learned_faces_correct_combination"	1	"left"	1.666	2.508	"recently_learned_faces"	659.319	658.506
660.167	"recently_learned_faces_false_combination"	1	"right"	1.167	2.507	"recently_learned_faces"	662.656	661.334
663.811	"famous_faces_baseline"	1	"right"	1.005	2.507	"famous_faces_baseline"	666.295	664.816
667.255	"famous_faces_false_combination"	1	"right"	0.886	2.507	"famous_faces"	669.733	668.141
672.754	"recently_learned_faces_correct_combination"	1	"left"	1.183	2.491	"recently_learned_faces"	675.224	673.937
676.432	"recently_learned_faces_baseline"	1	"left"	1.101	2.507	"recently_learned_faces_baseline"	678.913	677.533
679.759	"recently_learned_faces_correct_combination"	1	"left"	0.798	2.507	"recently_learned_faces"	682.25	680.557
683.302	"famous_faces_false_combination"	1	"right"	0.946	2.508	"famous_faces"	685.789	684.248
686.846	"recently_learned_faces_correct_combination"	1	"left"	1.491	2.508	"recently_learned_faces"	689.328	688.337
690.273	"famous_faces_baseline"	1	"left"	0.87	2.524	"famous_faces_baseline"	692.766	691.143
693.867	"famous_faces_baseline"	1	"left"	0.818	2.508	"famous_faces_baseline"	696.355	694.685
697.16	"famous_faces_correct_combination"	1	"left"	0.901	2.508	"famous_faces"	699.642	698.061
700.688	"recently_learned_faces_false_combination"	1	"right"	1.192	2.507	"recently_learned_faces"	703.18	701.88
704.282	"recently_learned_faces_correct_combination"	1	"left"	0.764	2.507	"recently_learned_faces"	706.769	705.046
707.675	"recently_learned_faces_correct_combination"	1	"left"	1.144	2.508	"recently_learned_faces"	710.156	708.819
711.303	"famous_faces_baseline"	1	"left"	0.974	2.507	"famous_faces_baseline"	713.795	712.277
714.596	"recently_learned_faces_baseline"	1	"right"	0.877	2.507	"recently_learned_faces_baseline"	717.082	715.473
720.33	"famous_faces_false_combination"	1	"right"	0.88	2.524	"famous_faces"	722.823	721.21
723.874	"famous_faces_baseline"	1	"left"	0.917	2.507	"famous_faces_baseline"	726.362	724.791
727.217	"recently_learned_faces_false_combination"	1	"right"	1.084	2.507	"recently_learned_faces"	729.699	728.301
730.744	"famous_faces_correct_combination"	1	"left"	0.912	2.524	"famous_faces"	733.237	731.656
734.388	"recently_learned_faces_correct_combination"	1	"left"	1.027	2.508	"recently_learned_faces"	736.876	735.415
737.782	"recently_learned_faces_correct_combination"	1	"left"	0.768	2.507	"recently_learned_faces"	740.264	738.55
741.309	"famous_faces_correct_combination"	1	"left"	0.851	2.524	"famous_faces"	743.803	742.16
744.853	"recently_learned_faces_correct_combination"	1	"left"	0.995	2.507	"recently_learned_faces"	747.341	745.848
748.196	"recently_learned_faces_false_combination"	1	"right"	1.372	2.508	"recently_learned_faces"	750.678	749.568
751.623	"recently_learned_faces_baseline"	1	"right"	0.826	2.508	"recently_learned_faces_baseline"	754.116	752.449
755.267	"recently_learned_faces_correct_combination"	1	"left"	1.076	2.508	"recently_learned_faces"	757.755	756.343
758.711	"recently_learned_faces_false_combination"	1	"right"	1	2.507	"recently_learned_faces"	761.193	759.711
762.288	"recently_learned_faces_correct_combination"	1	"left"	1.027	2.524	"recently_learned_faces"	764.782	763.315
767.788	"recently_learned_faces_baseline"	1	"right"	0.801	2.507	"recently_learned_faces_baseline"	770.271	768.589
771.332	"famous_faces_false_combination"	1	"right"	0.794	2.507	"famous_faces"	773.81	772.126
774.709	"famous_faces_correct_combination"	1	"left"	1.105	2.507	"famous_faces"	777.198	775.814
778.353	"recently_learned_faces_false_combination"	1	"right"	1.429	2.507	"recently_learned_faces"	780.837	779.782
781.897	"famous_faces_baseline"	1	"left"	0.913	2.507	"famous_faces_baseline"	784.375	782.81
785.223	"famous_faces_correct_combination"	1	"left"	0.85	2.508	"famous_faces"	787.712	786.073
788.767	"famous_faces_correct_combination"	1	"left"	0.716	2.508	"famous_faces"	791.251	789.483
792.161	"famous_faces_correct_combination"	1	"left"	0.682	2.507	"famous_faces"	794.639	792.843
