onset	duration	trial_type	accuracy	button	response_time	trial_type_less_granular	time_to_offset_alternative_onset	time_to_RT_alternative_onset_or_duration
10.25	0.034	recently_learned_faces_baseline	0	NA	NA	recently_learned_faces_baseline	10.251	NA
11.287	2.524	recently_learned_faces_baseline	1	right	1.967	recently_learned_faces_baseline	13.777	13.254
14.931	2.507	famous_faces_baseline	1	left	0.74	famous_faces_baseline	17.416	15.671
18.324	2.508	famous_faces_baseline	1	right	0.679	famous_faces_baseline	20.804	19.003
21.852	2.507	famous_faces_false_combination	1	right	1.115	famous_faces	24.343	22.967
25.245	2.508	famous_faces_correct_combination	1	left	0.878	famous_faces	27.73	26.123
28.789	2.507	recently_learned_faces_false_combination	1	right	1.239	recently_learned_faces	31.269	30.028
32.366	2.525	recently_learned_faces_false_combination	1	right	0.986	recently_learned_faces	34.858	33.352
35.66	2.507	famous_faces_false_combination	1	right	0.897	famous_faces	38.145	36.557
39.304	2.507	famous_faces_baseline	1	left	0.841	famous_faces_baseline	41.784	40.145
42.831	2.507	recently_learned_faces_baseline	1	left	0.652	recently_learned_faces_baseline	45.322	43.483
46.174	2.508	famous_faces_false_combination	1	right	0.692	famous_faces	48.659	46.866
49.618	2.507	famous_faces_baseline	1	right	1.282	famous_faces_baseline	52.097	50.9
55.251	2.508	famous_faces_baseline	1	right	0.753	famous_faces_baseline	57.738	56.004
58.795	2.508	recently_learned_faces_correct_combination	1	left	0.845	recently_learned_faces	61.276	59.64
62.322	2.508	recently_learned_faces_false_combination	1	right	0.758	recently_learned_faces	64.815	63.08
65.866	2.508	famous_faces_correct_combination	0	right	1.914	famous_faces	68.354	67.78
69.41	2.508	famous_faces_false_combination	1	right	0.807	famous_faces	71.892	70.217
72.687	2.524	recently_learned_faces_false_combination	0	left	1.608	recently_learned_faces	75.179	74.295
76.231	2.507	famous_faces_false_combination	1	right	1.463	famous_faces	78.717	77.694
79.775	2.507	recently_learned_faces_false_combination	1	right	1.268	recently_learned_faces	82.256	81.043
83.352	2.507	recently_learned_faces_false_combination	1	right	1.409	recently_learned_faces	85.845	84.761
86.796	2.507	famous_faces_baseline	1	right	0.977	famous_faces_baseline	89.283	87.773
90.239	2.508	famous_faces_baseline	1	right	0.722	famous_faces_baseline	92.721	90.961
93.616	2.507	famous_faces_false_combination	1	right	0.735	famous_faces	96.109	94.351
97.26	2.508	recently_learned_faces_false_combination	0	left	0.893	recently_learned_faces	99.748	98.153
102.894	2.524	recently_learned_faces_correct_combination	0	right	1.326	recently_learned_faces	105.388	104.22
106.337	2.508	famous_faces_correct_combination	1	left	1.008	famous_faces	108.826	107.345
109.931	2.508	recently_learned_faces_correct_combination	0	right	0.861	recently_learned_faces	112.415	110.792
113.258	2.524	recently_learned_faces_false_combination	1	right	1.077	recently_learned_faces	115.752	114.335
116.701	2.508	recently_learned_faces_correct_combination	1	left	0.845	recently_learned_faces	119.19	117.546
120.396	2.507	famous_faces_correct_combination	1	left	1.089	famous_faces	122.879	121.485
123.722	2.525	famous_faces_correct_combination	1	left	0.921	famous_faces	126.216	124.643
127.166	2.508	recently_learned_faces_correct_combination	1	left	0.901	recently_learned_faces	129.654	128.067
130.81	2.508	famous_faces_baseline	1	left	0.878	famous_faces_baseline	133.293	131.688
134.237	2.524	recently_learned_faces_baseline	1	right	1.142	recently_learned_faces_baseline	136.731	135.379
137.631	2.507	famous_faces_baseline	1	left	0.851	famous_faces_baseline	140.119	138.482
141.225	2.507	famous_faces_correct_combination	1	left	0.814	famous_faces	143.708	142.039
144.652	2.524	recently_learned_faces_correct_combination	1	left	1.108	recently_learned_faces	147.146	145.76
150.352	2.507	famous_faces_baseline	1	right	0.764	famous_faces_baseline	152.837	151.116
153.796	2.507	famous_faces_correct_combination	1	left	0.805	famous_faces	156.275	154.601
157.222	2.508	famous_faces_baseline	1	right	0.68	famous_faces_baseline	159.713	157.902
160.867	2.507	recently_learned_faces_correct_combination	1	left	1.052	recently_learned_faces	163.352	161.919
164.411	2.507	recently_learned_faces_baseline	1	left	0.928	recently_learned_faces_baseline	166.89	165.339
167.837	2.508	recently_learned_faces_correct_combination	1	left	0.77	recently_learned_faces	170.328	168.607
171.181	2.507	recently_learned_faces_correct_combination	1	left	0.764	recently_learned_faces	173.665	171.945
174.725	2.507	recently_learned_faces_correct_combination	1	left	0.849	recently_learned_faces	177.203	175.574
178.352	2.508	famous_faces_false_combination	1	right	0.969	famous_faces	180.842	179.321
181.746	2.507	recently_learned_faces_baseline	1	left	0.724	recently_learned_faces_baseline	184.23	182.47
185.139	2.508	famous_faces_false_combination	1	right	0.769	famous_faces	187.618	185.908
188.767	2.507	famous_faces_false_combination	1	right	0.729	famous_faces	191.257	189.496
192.311	2.507	famous_faces_baseline	1	right	0.645	famous_faces_baseline	194.795	192.956
197.743	2.508	recently_learned_faces_false_combination	1	right	0.784	recently_learned_faces	200.235	198.527
201.287	2.508	famous_faces_false_combination	1	right	0.775	famous_faces	203.773	202.062
204.831	2.508	recently_learned_faces_correct_combination	1	left	0.671	recently_learned_faces	207.312	205.502
208.358	2.525	famous_faces_false_combination	1	right	0.834	famous_faces	210.851	209.192
211.902	2.508	famous_faces_baseline	1	left	0.656	famous_faces_baseline	214.389	212.558
215.246	2.507	recently_learned_faces_false_combination	1	right	1.609	recently_learned_faces	217.726	216.855
218.823	2.507	recently_learned_faces_false_combination	0	left	0.756	recently_learned_faces	221.315	219.579
222.367	2.507	famous_faces_correct_combination	1	left	0.678	famous_faces	224.853	223.045
225.76	2.508	recently_learned_faces_baseline	1	right	0.802	recently_learned_faces_baseline	228.241	226.562
229.137	2.508	famous_faces_baseline	1	right	0.768	famous_faces_baseline	231.629	229.905
232.681	2.507	recently_learned_faces_baseline	1	left	0.734	recently_learned_faces_baseline	235.167	233.415
236.125	2.507	recently_learned_faces_baseline	1	right	0.656	recently_learned_faces_baseline	238.605	236.781
239.802	2.508	recently_learned_faces_false_combination	1	right	0.834	recently_learned_faces	242.294	240.636
245.252	2.507	recently_learned_faces_baseline	1	right	0.667	recently_learned_faces_baseline	247.734	245.919
248.779	2.508	famous_faces_correct_combination	1	left	0.885	famous_faces	251.272	249.664
252.323	2.507	famous_faces_correct_combination	1	left	0.688	famous_faces	254.811	253.011
255.917	2.508	famous_faces_baseline	1	right	0.619	famous_faces_baseline	258.4	256.536
259.344	2.524	recently_learned_faces_correct_combination	0	right	0.878	recently_learned_faces	261.838	260.222
262.888	2.507	recently_learned_faces_correct_combination	1	left	1.382	recently_learned_faces	265.376	264.27
266.231	2.508	famous_faces_correct_combination	1	left	0.684	famous_faces	268.713	266.915
269.758	2.525	famous_faces_false_combination	1	right	0.739	famous_faces	272.252	270.497
273.152	2.507	famous_faces_correct_combination	1	left	0.682	famous_faces	275.64	273.834
276.796	2.508	famous_faces_baseline	1	left	0.83	famous_faces_baseline	279.279	277.626
280.323	2.524	recently_learned_faces_correct_combination	1	left	1.27	recently_learned_faces	282.817	281.593
283.616	2.508	famous_faces_false_combination	1	right	0.736	famous_faces	286.104	284.352
287.16	2.508	recently_learned_faces_correct_combination	1	left	1.546	recently_learned_faces	289.642	288.706
292.894	2.508	recently_learned_faces_correct_combination	1	left	0.708	recently_learned_faces	295.384	293.602
296.338	2.507	famous_faces_false_combination	1	right	0.919	famous_faces	298.822	297.257
299.781	2.508	famous_faces_false_combination	1	right	0.637	famous_faces	302.26	300.418
303.208	2.508	recently_learned_faces_baseline	1	right	0.674	recently_learned_faces_baseline	305.698	303.882
306.903	2.507	famous_faces_correct_combination	1	left	0.599	famous_faces	309.387	307.502
310.296	2.508	recently_learned_faces_baseline	1	left	0.579	recently_learned_faces_baseline	312.775	310.875
313.673	2.507	famous_faces_correct_combination	1	left	0.6	famous_faces	316.163	314.273
317.317	2.508	recently_learned_faces_correct_combination	1	left	1.363	recently_learned_faces	319.802	318.68
320.861	2.507	recently_learned_faces_false_combination	1	right	0.701	recently_learned_faces	323.34	321.562
324.188	2.507	recently_learned_faces_false_combination	1	right	0.839	recently_learned_faces	326.677	325.027
327.731	2.508	recently_learned_faces_correct_combination	1	left	0.806	recently_learned_faces	330.216	328.537
331.125	2.507	recently_learned_faces_baseline	1	right	0.913	recently_learned_faces_baseline	333.604	332.038
334.652	2.508	famous_faces_correct_combination	1	left	0.658	famous_faces	337.142	335.31
340.453	2.507	recently_learned_faces_baseline	1	left	0.771	recently_learned_faces_baseline	342.933	341.224
343.829	2.508	recently_learned_faces_baseline	1	right	0.951	recently_learned_faces_baseline	346.321	344.78
347.273	2.508	famous_faces_false_combination	1	right	0.874	famous_faces	349.759	348.147
350.717	2.507	recently_learned_faces_correct_combination	1	left	0.704	recently_learned_faces	353.197	351.421
354.344	2.508	famous_faces_false_combination	1	right	0.713	famous_faces	356.836	355.057
357.738	2.507	recently_learned_faces_baseline	1	right	0.743	recently_learned_faces_baseline	360.223	358.481
361.282	2.507	recently_learned_faces_baseline	1	left	0.768	recently_learned_faces_baseline	363.762	362.05
364.658	2.508	recently_learned_faces_false_combination	1	right	0.775	recently_learned_faces	367.15	365.433
368.353	2.507	famous_faces_false_combination	1	right	0.669	famous_faces	370.839	369.022
371.796	2.508	famous_faces_correct_combination	1	left	0.679	famous_faces	374.277	372.475
375.173	2.508	famous_faces_false_combination	1	right	0.909	famous_faces	377.664	376.082
378.767	2.508	recently_learned_faces_baseline	1	right	0.711	recently_learned_faces_baseline	381.253	379.478
382.311	2.508	recently_learned_faces_false_combination	1	right	0.849	recently_learned_faces	384.791	383.16
387.744	2.507	recently_learned_faces_baseline	1	left	0.647	recently_learned_faces_baseline	390.231	388.391
391.388	2.508	famous_faces_false_combination	1	right	0.714	famous_faces	393.87	392.102
394.765	2.507	famous_faces_correct_combination	1	left	0.671	famous_faces	397.257	395.436
398.409	2.508	recently_learned_faces_baseline	1	right	0.688	recently_learned_faces_baseline	400.896	399.097
401.803	2.507	recently_learned_faces_correct_combination	1	left	0.879	recently_learned_faces	404.284	402.682
405.179	2.508	famous_faces_correct_combination	1	left	0.643	famous_faces	407.672	405.822
408.824	2.507	recently_learned_faces_false_combination	0	left	0.85	recently_learned_faces	411.311	409.674
412.367	2.508	famous_faces_correct_combination	1	left	0.629	famous_faces	414.849	412.996
415.744	2.508	famous_faces_false_combination	1	right	0.703	famous_faces	418.237	416.447
419.188	2.507	famous_faces_baseline	1	right	0.738	famous_faces_baseline	421.675	419.926
422.832	2.507	famous_faces_correct_combination	1	left	0.608	famous_faces	425.314	423.44
426.159	2.507	famous_faces_baseline	1	right	0.634	famous_faces_baseline	428.651	426.793
429.753	2.507	famous_faces_baseline	1	left	0.83	famous_faces_baseline	432.24	430.583
435.286	2.524	recently_learned_faces_baseline	1	left	0.559	recently_learned_faces_baseline	437.78	435.845
438.729	2.508	recently_learned_faces_false_combination	1	right	1.048	recently_learned_faces	441.218	439.777
442.323	2.508	recently_learned_faces_correct_combination	1	left	0.9	recently_learned_faces	444.807	443.223
445.918	2.507	recently_learned_faces_baseline	1	left	0.664	recently_learned_faces_baseline	448.396	446.582
449.344	2.508	recently_learned_faces_false_combination	0	left	0.843	recently_learned_faces	451.834	450.187
452.788	2.508	recently_learned_faces_baseline	1	left	0.754	recently_learned_faces_baseline	455.272	453.542
456.232	2.507	recently_learned_faces_baseline	1	left	0.623	recently_learned_faces_baseline	458.71	456.855
459.809	2.508	famous_faces_baseline	1	left	0.493	famous_faces_baseline	462.299	460.302
463.152	2.508	famous_faces_correct_combination	1	left	0.523	famous_faces	465.636	463.675
466.847	2.507	famous_faces_baseline	1	right	0.648	famous_faces_baseline	469.325	467.495
470.173	2.508	famous_faces_false_combination	1	right	0.816	famous_faces	472.662	470.989
473.617	2.507	famous_faces_false_combination	1	right	0.728	famous_faces	476.1	474.345
477.295	2.524	recently_learned_faces_baseline	1	left	0.563	recently_learned_faces_baseline	479.789	477.858
482.844	2.508	famous_faces_baseline	1	right	0.702	famous_faces_baseline	485.33	483.546
486.388	2.508	recently_learned_faces_correct_combination	1	left	1.001	recently_learned_faces	488.869	487.389
489.765	2.508	recently_learned_faces_baseline	1	left	0.758	recently_learned_faces_baseline	492.256	490.523
493.409	2.508	recently_learned_faces_correct_combination	1	left	0.8	recently_learned_faces	495.895	494.209
496.703	2.507	famous_faces_baseline	1	left	0.616	famous_faces_baseline	499.182	497.319
500.33	2.507	recently_learned_faces_false_combination	1	right	0.722	recently_learned_faces	502.821	501.052
503.673	2.508	famous_faces_false_combination	1	right	0.902	famous_faces	506.158	504.575
507.217	2.508	recently_learned_faces_baseline	1	left	0.682	recently_learned_faces_baseline	509.696	507.899
510.744	2.508	famous_faces_baseline	1	right	0.605	famous_faces_baseline	513.235	511.349
514.338	2.508	recently_learned_faces_false_combination	1	right	0.909	recently_learned_faces	516.824	515.247
517.782	2.508	famous_faces_baseline	1	left	0.537	famous_faces_baseline	520.262	518.319
521.309	2.508	famous_faces_false_combination	1	right	0.882	famous_faces	523.8	522.191
524.703	2.507	recently_learned_faces_false_combination	1	right	0.783	recently_learned_faces	527.188	525.486
530.269	2.474	famous_faces_correct_combination	1	left	0.774	famous_faces	532.728	531.043
533.78	2.507	recently_learned_faces_false_combination	0	left	0.818	recently_learned_faces	536.266	534.598
537.374	2.507	recently_learned_faces_baseline	1	right	0.686	recently_learned_faces_baseline	539.855	538.06
540.801	2.507	recently_learned_faces_correct_combination	1	left	0.77	recently_learned_faces	543.293	541.571
544.395	2.507	famous_faces_correct_combination	1	left	0.864	famous_faces	546.882	545.259
547.788	2.508	famous_faces_correct_combination	1	left	0.656	famous_faces	550.27	548.444
551.366	2.507	recently_learned_faces_false_combination	1	right	0.813	recently_learned_faces	553.859	552.179
554.809	2.508	famous_faces_baseline	1	left	0.715	famous_faces_baseline	557.297	555.524
558.203	2.507	famous_faces_false_combination	1	right	0.646	famous_faces	560.684	558.849
561.63	2.507	famous_faces_false_combination	1	right	0.872	famous_faces	564.122	562.502
565.274	2.507	famous_faces_false_combination	1	right	0.695	famous_faces	567.761	565.969
568.617	2.508	recently_learned_faces_false_combination	1	right	0.728	recently_learned_faces	571.098	569.345
572.295	2.507	recently_learned_faces_false_combination	0	left	0.894	recently_learned_faces	574.787	573.189
577.895	2.507	recently_learned_faces_baseline	1	left	0.875	recently_learned_faces_baseline	580.378	578.77
581.272	2.507	recently_learned_faces_baseline	1	right	0.702	recently_learned_faces_baseline	583.765	581.974
584.816	2.507	recently_learned_faces_false_combination	1	right	0.909	recently_learned_faces	587.304	585.725
588.41	2.507	famous_faces_correct_combination	1	left	0.632	famous_faces	590.893	589.042
591.686	2.508	recently_learned_faces_baseline	1	right	0.621	recently_learned_faces_baseline	594.18	592.307
595.28	2.508	famous_faces_correct_combination	1	left	0.595	famous_faces	597.769	595.875
598.724	2.507	famous_faces_baseline	1	left	0.704	famous_faces_baseline	601.207	599.428
602.318	2.507	recently_learned_faces_false_combination	1	right	0.865	recently_learned_faces	604.796	603.183
605.644	2.508	recently_learned_faces_false_combination	1	right	0.727	recently_learned_faces	608.133	606.371
609.339	2.507	famous_faces_baseline	1	right	0.73	famous_faces_baseline	611.822	610.069
612.715	2.525	famous_faces_baseline	1	right	0.706	famous_faces_baseline	615.21	613.421
616.109	2.507	recently_learned_faces_baseline	1	left	0.612	recently_learned_faces_baseline	618.598	616.721
619.803	2.508	famous_faces_correct_combination	1	left	0.623	famous_faces	622.287	620.426
625.337	2.507	famous_faces_correct_combination	1	left	0.928	famous_faces	627.827	626.265
628.931	2.507	famous_faces_false_combination	1	right	0.672	famous_faces	631.416	629.603
632.274	2.507	famous_faces_correct_combination	1	left	0.674	famous_faces	634.753	632.948
635.701	2.507	famous_faces_false_combination	1	right	0.668	famous_faces	638.191	636.369
639.345	2.507	recently_learned_faces_false_combination	1	right	0.793	recently_learned_faces	641.83	640.138
642.789	2.507	famous_faces_false_combination	1	right	0.687	famous_faces	645.268	643.476
646.366	2.507	famous_faces_false_combination	1	right	0.712	famous_faces	648.857	647.078
649.709	2.508	recently_learned_faces_correct_combination	1	left	0.738	recently_learned_faces	652.194	650.447
653.153	2.507	famous_faces_baseline	1	left	0.748	famous_faces_baseline	655.632	653.901
656.78	2.508	recently_learned_faces_correct_combination	1	left	1.043	recently_learned_faces	659.271	657.823
660.124	2.507	recently_learned_faces_false_combination	1	right	0.766	recently_learned_faces	662.608	660.89
663.818	2.508	famous_faces_baseline	1	right	0.678	famous_faces_baseline	666.297	664.496
667.145	2.507	famous_faces_false_combination	1	right	0.658	famous_faces	669.634	667.803
672.895	2.508	recently_learned_faces_correct_combination	1	left	0.789	recently_learned_faces	675.376	673.684
676.422	2.508	recently_learned_faces_baseline	1	left	0.791	recently_learned_faces_baseline	678.914	677.213
679.816	2.507	recently_learned_faces_correct_combination	1	left	0.683	recently_learned_faces	682.302	680.499
683.209	2.508	famous_faces_false_combination	1	right	0.726	famous_faces	685.69	683.935
686.736	2.508	recently_learned_faces_correct_combination	1	left	1.375	recently_learned_faces	689.228	688.111
690.18	2.508	famous_faces_baseline	1	left	0.573	famous_faces_baseline	692.666	690.753
693.724	2.507	famous_faces_baseline	1	left	0.544	famous_faces_baseline	696.204	694.268
697.351	2.508	famous_faces_correct_combination	1	left	0.713	famous_faces	699.843	698.064
700.745	2.507	recently_learned_faces_false_combination	1	right	0.967	recently_learned_faces	703.231	701.712
704.289	2.507	recently_learned_faces_correct_combination	1	left	0.678	recently_learned_faces	706.77	704.967
707.666	2.507	recently_learned_faces_correct_combination	1	left	0.876	recently_learned_faces	710.157	708.542
711.21	2.507	famous_faces_baseline	1	left	0.644	famous_faces_baseline	713.696	711.854
714.603	2.507	recently_learned_faces_baseline	1	right	0.635	recently_learned_faces_baseline	717.084	715.238
720.236	2.508	famous_faces_false_combination	1	right	0.767	famous_faces	722.724	721.003
723.881	2.507	famous_faces_baseline	1	left	0.717	famous_faces_baseline	726.363	724.598
727.257	2.508	recently_learned_faces_false_combination	1	right	0.735	recently_learned_faces	729.75	727.992
730.902	2.507	famous_faces_correct_combination	1	left	0.606	famous_faces	733.389	731.508
734.295	2.508	recently_learned_faces_correct_combination	1	left	0.859	recently_learned_faces	736.777	735.154
737.822	2.508	recently_learned_faces_correct_combination	1	left	0.591	recently_learned_faces	740.316	738.413
741.166	2.507	famous_faces_correct_combination	1	left	0.585	famous_faces	743.653	741.751
744.76	2.507	recently_learned_faces_correct_combination	1	left	0.619	recently_learned_faces	747.242	745.379
748.187	2.507	recently_learned_faces_false_combination	1	right	0.699	recently_learned_faces	750.68	748.886
751.831	2.507	recently_learned_faces_baseline	1	right	0.654	recently_learned_faces_baseline	754.319	752.485
755.124	2.507	recently_learned_faces_correct_combination	1	left	0.699	recently_learned_faces	757.606	755.823
758.651	2.508	recently_learned_faces_false_combination	1	right	0.69	recently_learned_faces	761.144	759.341
762.195	2.508	recently_learned_faces_correct_combination	0	right	0.631	recently_learned_faces	764.683	762.826
767.879	2.524	recently_learned_faces_baseline	1	right	0.752	recently_learned_faces_baseline	770.373	768.631
771.322	2.508	famous_faces_false_combination	0	left	0.682	famous_faces	773.811	772.004
774.916	2.508	famous_faces_correct_combination	1	left	0.622	famous_faces	777.4	775.538
778.193	2.507	recently_learned_faces_false_combination	1	right	1.259	recently_learned_faces	780.687	779.452
781.737	2.507	famous_faces_baseline	1	left	0.712	famous_faces_baseline	784.225	782.449
785.18	2.508	famous_faces_correct_combination	1	left	0.748	famous_faces	787.663	785.928
788.708	2.507	famous_faces_correct_combination	1	left	0.722	famous_faces	791.201	789.43
792.251	2.508	famous_faces_correct_combination	1	left	0.64	famous_faces	794.74	792.891
