"onset"	"trial_type"	"accuracy"	"button"	"response_time"	"duration"	"time_to_offset_alternative_onset"	"time_to_RT_alternative_onset_or_duration"
10.9	"Visual_Lure"	1	"left"	1.074	1.789	12.689	11.974
13.424	"Visual_Different"	1	"left"	0.82	1.789	15.213	14.244
15.714	"Visual_Same"	0	NA	NA	1.789	17.503	NA
18.305	"Visual_Different"	1	"left"	0.875	1.789	20.094	19.18
20.746	"Visual_Different"	1	"left"	1.17	1.789	22.535	21.916
23.287	"Visual_Same"	1	"right"	1.313	1.789	25.076	24.6
25.661	"Visual_Same"	1	"right"	0.594	1.788	27.449	26.255
33.35	"Auditory_Same"	1	"right"	1.573	1.789	35.139	34.923
35.925	"Auditory_Lure"	0	"right"	1.423	1.788	37.713	37.348
38.215	"Auditory_Same"	1	"right"	1.033	1.789	40.004	39.248
40.756	"Auditory_Different"	1	"left"	0.837	1.789	42.545	41.593
43.347	"Auditory_Different"	1	"left"	0.882	1.789	45.136	44.229
45.888	"Auditory_Lure"	0	"right"	0.922	1.789	47.677	46.81
53.293	"Visual_Lure"	1	"left"	0.755	1.789	55.082	54.048
55.884	"Visual_Lure"	1	"left"	0.978	1.789	57.673	56.862
58.425	"Visual_Same"	1	"right"	0.738	1.789	60.214	59.163
60.749	"Visual_Different"	1	"left"	1.045	1.789	62.538	61.794
63.39	"Visual_Different"	1	"left"	1.084	1.789	65.179	64.474
65.68	"Visual_Lure"	0	"right"	0.954	1.789	67.469	66.634
73.286	"Auditory_Lure"	1	"left"	1.533	1.789	75.075	74.819
75.877	"Auditory_Lure"	1	"left"	0.994	1.789	77.666	76.871
78.318	"Auditory_Different"	1	"left"	0.999	1.789	80.107	79.317
80.709	"Auditory_Same"	1	"right"	0.837	1.788	82.497	81.546
83.383	"Auditory_Lure"	1	"left"	0.901	1.789	85.172	84.284
90.839	"Visual_Same"	1	"right"	0.986	1.789	92.628	91.825
93.38	"Visual_Lure"	1	"left"	0.723	1.789	95.169	94.103
95.921	"Visual_Different"	1	"left"	0.651	1.788	97.709	96.572
98.361	"Visual_Lure"	1	"left"	1.266	1.789	100.15	99.627
100.785	"Visual_Lure"	1	"left"	0.733	1.789	102.574	101.518
103.176	"Visual_Different"	1	"left"	0.662	1.788	104.964	103.838
105.717	"Visual_Different"	1	"left"	0.624	1.788	107.505	106.341
113.339	"Auditory_Lure"	1	"left"	1.621	1.789	115.128	114.96
115.88	"Auditory_Lure"	1	"left"	1.118	1.789	117.669	116.998
118.271	"Auditory_Same"	1	"right"	0.988	1.789	120.06	119.259
120.695	"Auditory_Different"	1	"left"	0.814	1.788	122.483	121.509
123.236	"Auditory_Different"	1	"left"	1.102	1.788	125.024	124.338
125.676	"Auditory_Lure"	1	"left"	1.021	1.789	127.465	126.697
133.45	"Visual_Lure"	1	"left"	0.708	1.772	135.222	134.158
135.873	"Visual_Different"	1	"left"	0.732	1.789	137.662	136.605
138.214	"Visual_Lure"	0	"right"	1.101	1.788	140.002	139.315
140.755	"Visual_Same"	1	"right"	0.78	1.788	142.543	141.535
143.296	"Visual_Same"	1	"right"	0.804	1.788	145.084	144.1
145.82	"Visual_Different"	1	"left"	0.713	1.789	147.609	146.533
153.443	"Auditory_Same"	1	"right"	0.979	1.788	155.231	154.422
155.883	"Auditory_Same"	1	"right"	0.891	1.789	157.672	156.774
158.324	"Auditory_Lure"	1	"left"	1.08	1.772	160.096	159.404
160.898	"Auditory_Different"	0	NA	NA	1.789	162.687	NA
163.239	"Auditory_Same"	1	"right"	0.986	1.788	165.027	164.225
170.744	"Visual_Different"	1	"left"	0.63	1.789	172.533	171.374
173.269	"Visual_Different"	1	"left"	0.651	1.788	175.057	173.92
175.809	"Visual_Lure"	1	"left"	0.874	1.789	177.598	176.683
178.401	"Visual_Same"	1	"right"	0.606	1.788	180.189	179.007
180.791	"Visual_Same"	1	"right"	0.581	1.789	182.58	181.372
183.332	"Visual_Different"	1	"left"	0.752	1.789	185.121	184.084
190.888	"Auditory_Different"	1	"left"	0.891	1.789	192.677	191.779
193.228	"Auditory_Lure"	0	"right"	0.916	1.789	195.017	194.144
195.819	"Auditory_Different"	1	"left"	1.037	1.789	197.608	196.856
198.36	"Auditory_Same"	1	"right"	1.125	1.789	200.149	199.485
200.684	"Auditory_Same"	1	"right"	0.797	1.788	202.472	201.481
203.375	"Auditory_Lure"	1	"left"	0.898	1.789	205.164	204.273
205.766	"Auditory_Lure"	1	"left"	1.009	1.788	207.554	206.775
213.439	"Visual_Different"	0	"right"	0.662	1.788	215.227	214.101
215.779	"Visual_Different"	1	"left"	0.731	1.789	217.568	216.51
218.219	"Visual_Same"	1	"right"	0.663	1.789	220.008	218.882
220.894	"Visual_Lure"	1	"left"	0.855	1.789	222.683	221.749
223.285	"Visual_Different"	1	"left"	0.763	1.788	225.073	224.048
230.79	"Auditory_Lure"	1	"left"	0.741	1.789	232.579	231.531
233.432	"Auditory_Different"	1	"left"	1.455	1.788	235.22	234.887
235.855	"Auditory_Lure"	1	"left"	1.298	1.789	237.644	237.153
238.196	"Auditory_Same"	1	"right"	0.997	1.788	239.984	239.193
240.737	"Auditory_Same"	1	"right"	0.882	1.788	242.525	241.619
243.278	"Auditory_Different"	1	"left"	0.778	1.788	245.066	244.056
250.884	"Visual_Same"	1	"right"	0.66	1.788	252.672	251.544
253.224	"Visual_Lure"	1	"left"	0.83	1.789	255.013	254.054
255.765	"Visual_Same"	0	"left"	1.156	1.789	257.554	256.921
258.306	"Visual_Different"	1	"left"	1.056	1.789	260.095	259.362
260.73	"Visual_Different"	1	"left"	0.669	1.788	262.518	261.399
263.321	"Visual_Lure"	1	"left"	0.901	1.789	265.11	264.222
270.894	"Auditory_Different"	1	"left"	0.863	1.788	272.682	271.757
273.418	"Auditory_Different"	1	"left"	1.303	1.788	275.206	274.721
275.758	"Auditory_Lure"	1	"left"	1.17	1.789	277.547	276.928
278.199	"Auditory_Different"	1	"left"	1.045	1.788	279.987	279.244
280.79	"Auditory_Same"	1	"right"	0.87	1.788	282.578	281.66
288.245	"Visual_Different"	1	"left"	0.881	1.789	290.034	289.126
290.92	"Visual_Same"	1	"right"	0.983	1.789	292.709	291.903
293.31	"Visual_Lure"	1	"left"	0.835	1.789	295.099	294.145
295.751	"Visual_Same"	1	"right"	0.814	1.789	297.54	296.565
298.342	"Visual_Same"	1	"right"	0.569	1.789	300.131	298.911
300.866	"Visual_Lure"	1	"left"	0.875	1.789	302.655	301.741
303.157	"Visual_Lure"	1	"left"	1.487	1.788	304.945	304.644
310.93	"Auditory_Same"	1	"right"	1.004	1.788	312.718	311.934
313.27	"Auditory_Same"	1	"right"	0.891	1.789	315.059	314.161
315.861	"Auditory_Different"	1	"left"	1.152	1.789	317.65	317.013
318.302	"Auditory_Lure"	0	"right"	0.758	1.788	320.09	319.06
320.692	"Auditory_Lure"	1	"left"	0.999	1.789	322.481	321.691
323.267	"Auditory_Same"	1	"right"	0.935	1.788	325.055	324.202
330.789	"Visual_Lure"	1	"left"	0.687	1.789	332.578	331.476
333.23	"Visual_Lure"	1	"left"	0.761	1.788	335.018	333.991
335.904	"Visual_Different"	1	"left"	1.666	1.789	337.693	337.57
338.345	"Visual_Same"	1	"right"	0.699	1.789	340.134	339.044
340.786	"Visual_Lure"	1	"left"	0.864	1.788	342.574	341.65
348.241	"Auditory_Lure"	1	"left"	1.189	1.789	350.03	349.43
350.765	"Auditory_Lure"	0	"right"	0.734	1.789	352.554	351.499
353.407	"Auditory_Same"	1	"right"	1.171	1.788	355.195	354.578
355.847	"Auditory_Lure"	0	"right"	0.834	1.789	357.636	356.681
358.238	"Auditory_Different"	1	"left"	1.13	1.788	360.026	359.368
365.894	"Visual_Different"	1	"left"	0.697	1.789	367.683	366.591
368.418	"Visual_Same"	1	"right"	1.011	1.789	370.207	369.429
370.809	"Visual_Different"	1	"left"	0.743	1.788	372.597	371.552
373.249	"Visual_Lure"	1	"left"	1.044	1.789	375.038	374.293
375.69	"Visual_Lure"	1	"left"	0.658	1.789	377.479	376.348
378.331	"Visual_Same"	0	"left"	0.505	1.772	380.103	378.836
385.937	"Auditory_Lure"	1	"left"	1.146	1.789	387.726	387.083
388.378	"Auditory_Same"	1	"right"	0.924	1.788	390.166	389.302
390.718	"Auditory_Lure"	1	"left"	0.91	1.772	392.49	391.628
393.292	"Auditory_Different"	1	"left"	1.157	1.789	395.081	394.449
395.683	"Auditory_Different"	1	"left"	1.496	1.789	397.472	397.179
398.324	"Auditory_Same"	1	"right"	0.884	1.789	400.113	399.208
400.715	"Auditory_Same"	1	"right"	0.905	1.788	402.503	401.62
408.438	"Visual_Lure"	1	"left"	0.715	1.788	410.226	409.153
410.728	"Visual_Same"	1	"right"	0.807	1.789	412.517	411.535
413.252	"Visual_Lure"	1	"left"	0.672	1.789	415.041	413.924
415.793	"Visual_Different"	1	"left"	0.763	1.789	417.582	416.556
418.234	"Visual_Different"	1	"left"	0.805	1.788	420.022	419.039
420.774	"Visual_Same"	1	"right"	0.792	1.789	422.563	421.566
423.315	"Visual_Same"	1	"right"	0.66	1.789	425.104	423.975
430.838	"Auditory_Lure"	1	"left"	0.868	1.789	432.627	431.706
433.429	"Auditory_Different"	1	"left"	1.017	1.789	435.218	434.446
435.853	"Auditory_Same"	1	"right"	0.914	1.789	437.642	436.767
438.394	"Auditory_Different"	1	"left"	0.918	1.788	440.182	439.312
440.684	"Auditory_Different"	1	"left"	1.052	1.789	442.473	441.736
443.275	"Auditory_Same"	1	"right"	0.896	1.789	445.064	444.171
445.716	"Auditory_Same"	1	"right"	0.917	1.788	447.504	446.633
453.238	"Visual_Lure"	1	"left"	0.771	1.789	455.027	454.009
455.929	"Visual_Lure"	1	"left"	0.853	1.772	457.701	456.782
458.253	"Visual_Same"	1	"right"	1.221	1.789	460.042	459.474
460.694	"Visual_Lure"	1	"left"	0.895	1.788	462.482	461.589
463.385	"Visual_Different"	1	"left"	0.792	1.789	465.174	464.177
470.941	"Auditory_Same"	1	"right"	0.853	1.789	472.73	471.794
473.214	"Auditory_Same"	1	"right"	1.218	1.789	475.003	474.432
475.755	"Auditory_Different"	1	"left"	0.664	1.789	477.544	476.419
478.296	"Auditory_Same"	1	"right"	0.933	1.789	480.085	479.229
480.837	"Auditory_Lure"	1	"left"	1.09	1.789	482.626	481.927
488.326	"Visual_Same"	1	"right"	0.947	1.789	490.115	489.273
490.867	"Visual_Same"	1	"right"	0.813	1.789	492.656	491.68
493.408	"Visual_Lure"	1	"left"	0.81	1.789	495.197	494.218
495.799	"Visual_Different"	1	"left"	0.974	1.788	497.587	496.773
498.189	"Visual_Same"	1	"right"	0.976	1.789	499.978	499.165
505.778	"Auditory_Same"	1	"right"	1.109	1.789	507.567	506.887
508.319	"Auditory_Different"	1	"left"	0.901	1.789	510.108	509.22
510.71	"Auditory_Same"	1	"right"	0.916	1.788	512.498	511.626
513.351	"Auditory_Lure"	1	"left"	1.311	1.789	515.14	514.662
515.875	"Auditory_Lure"	1	"left"	1.126	1.789	517.664	517.001
518.215	"Auditory_Different"	1	"left"	1.114	1.789	520.004	519.329
520.857	"Auditory_Different"	1	"left"	1.059	1.788	522.645	521.916
528.379	"Visual_Different"	1	"left"	0.787	1.789	530.168	529.166
530.77	"Visual_Lure"	1	"left"	0.955	1.788	532.558	531.725
533.411	"Visual_Different"	1	"left"	0.784	1.789	535.2	534.195
535.801	"Visual_Same"	1	"right"	0.83	1.789	537.59	536.631
538.326	"Visual_Same"	1	"right"	0.774	1.788	540.114	539.1
540.666	"Visual_Lure"	1	"left"	0.741	1.789	542.455	541.407
543.207	"Visual_Lure"	1	"left"	0.81	1.788	544.995	544.017
550.729	"Auditory_Same"	1	"right"	0.839	1.789	552.518	551.568
553.37	"Auditory_Lure"	1	"left"	1.133	1.789	555.159	554.503
555.811	"Auditory_Different"	1	"left"	1.635	1.789	557.6	557.446
558.252	"Auditory_Lure"	1	"left"	1.231	1.772	560.024	559.483
560.876	"Auditory_Lure"	1	"left"	0.935	1.789	562.665	561.811
563.166	"Auditory_Different"	0	"right"	0.845	1.789	564.955	564.011
565.757	"Auditory_Different"	1	"left"	0.827	1.789	567.546	566.584
573.43	"Visual_Same"	1	"right"	0.617	1.789	575.219	574.047
575.871	"Visual_Same"	1	"right"	0.541	1.789	577.66	576.412
578.312	"Visual_Different"	1	"left"	0.634	1.788	580.1	578.946
580.736	"Visual_Lure"	1	"left"	0.681	1.788	582.524	581.417
583.176	"Visual_Lure"	1	"left"	0.798	1.789	584.965	583.974
585.868	"Visual_Same"	1	"right"	0.812	1.788	587.656	586.68
593.373	"Auditory_Different"	1	"left"	1.066	1.789	595.162	594.439
595.714	"Auditory_Same"	1	"right"	0.871	1.788	597.502	596.585
598.255	"Auditory_Different"	1	"left"	1.67	1.788	600.043	599.925
600.795	"Auditory_Lure"	1	"left"	1.122	1.789	602.584	601.917
603.336	"Auditory_Lure"	0	NA	NA	1.789	605.125	NA
605.861	"Auditory_Same"	0	NA	NA	1.788	607.649	NA
613.333	"Visual_Different"	1	"left"	1.366	1.789	615.122	614.699
615.723	"Visual_Different"	1	"left"	0.731	1.789	617.512	616.454
618.365	"Visual_Lure"	0	"right"	0.662	1.772	620.137	619.027
620.738	"Visual_Different"	1	"left"	0.623	1.789	622.527	621.361
623.38	"Visual_Same"	1	"right"	0.91	1.788	625.168	624.29
630.885	"Auditory_Different"	1	"left"	1.003	1.789	632.674	631.888
633.259	"Auditory_Same"	1	"right"	0.92	1.789	635.048	634.179
635.9	"Auditory_Lure"	1	"left"	1.178	1.789	637.689	637.078
638.291	"Auditory_Same"	1	"right"	0.954	1.788	640.079	639.245
640.681	"Auditory_Same"	1	"right"	0.908	1.789	642.47	641.589
643.322	"Auditory_Lure"	1	"left"	1.073	1.789	645.111	644.395
645.847	"Auditory_Lure"	1	"left"	1.088	1.788	647.635	646.935
653.336	"Visual_Same"	1	"right"	0.814	1.788	655.124	654.15
655.76	"Visual_Same"	1	"right"	0.625	1.788	657.548	656.385
658.351	"Visual_Different"	1	"left"	0.736	1.788	660.139	659.087
660.691	"Visual_Same"	1	"right"	0.802	1.789	662.48	661.493
663.282	"Visual_Lure"	1	"left"	0.641	1.789	665.071	663.923
670.838	"Auditory_Different"	1	"left"	1.371	1.772	672.61	672.209
673.262	"Auditory_Different"	1	"left"	1.316	1.789	675.051	674.578
675.702	"Auditory_Same"	1	"right"	1.071	1.789	677.491	676.773
678.294	"Auditory_Lure"	0	NA	NA	1.788	680.082	NA
680.684	"Auditory_Different"	1	"left"	0.935	1.789	682.473	681.619
688.424	"Visual_Same"	1	"right"	0.735	1.788	690.212	689.159
690.864	"Visual_Different"	1	"left"	0.653	1.789	692.653	691.517
693.205	"Visual_Same"	1	"right"	0.708	1.788	694.993	693.913
695.746	"Visual_Lure"	1	"left"	1.075	1.788	697.534	696.821
698.27	"Visual_Lure"	1	"left"	1.117	1.789	700.059	699.387
700.811	"Visual_Different"	1	"left"	0.752	1.788	702.599	701.563
703.201	"Visual_Different"	1	"left"	0.787	1.789	704.99	703.988
710.924	"Auditory_Different"	1	"left"	0.891	1.789	712.713	711.815
713.265	"Auditory_Different"	1	"left"	0.81	1.788	715.053	714.075
715.856	"Auditory_Lure"	1	"left"	1.228	1.788	717.644	717.084
718.196	"Auditory_Same"	1	"right"	0.819	1.789	719.985	719.015
720.72	"Auditory_Same"	1	"right"	1.745	1.789	722.509	722.465
723.311	"Auditory_Different"	1	"left"	0.998	1.789	725.1	724.309
